"","Participant","Trial_Nr","Run_Nr","Trial_nr_run","Cue_Taste1_Size2","Top_image_index","Bottom_image_index","Choice","RT_choice","Size_top_image","Taste_top_image","Size_bottom_image","Taste_bottom_image","Size_diff","Taste_diff","Cued_diff","Category","mean_RT_size_pic1","mean_RT_taste_pic1","mean_RT_size_pic2","mean_RT_taste_pic2","Diff_category_oposite_to_cue","Category_opposite_to_cue","Stimulation","Session_type","Accuracy","Size1_TopPic","Size2_TopPic","Taste1_TopPic","Taste2_TopPic","Size1_BotPic","Size2_BotPic","Taste1_BotPic","Taste2_BotPic","Amplitude","Circumfence","Time_between_tasks","Name_top_image","Name_bottom_image","Choice01","Size_diff.ntile","Taste_diff.ntile","Size_diff.abs","Taste_diff.abs","corr"
"1",1,1,1,1,1,4,1,-1,1.767825067,0.347222222,0.371527778,0.626302083,0.274739583,-0.279079861,0.096788194,0.096788194,6,2.362687289,1.572754489,1.888526933,3.379911822,-0.279079861,0,1,1,0,0.311631944,0.3828125,0.388020833,0.355034722,0.701388889,0.551215278,0.365451389,0.184027778,1,57,33.12138333,"mikado","blevita",0,1,6,0.996866930928865,-0.457872535970525,0
"2",1,2,1,2,1,10,5,-1,1.46487552,0.260850694,0.417534722,0.523003472,0.405815972,-0.262152778,0.01171875,0.01171875,5,1.813897813,2.0965632,2.68007936,1.555521138,-0.262152778,0,1,1,0,0.300347222,0.221354167,0.342013889,0.493055556,0.572048611,0.473958333,0.420138889,0.391493056,1,57,33.12138333,"oreo","rizaulait",0,1,5,0.865195895418068,-0.949282658957009,0
"3",1,3,1,3,1,31,1,-1,1.494438969,0.473524306,0.234809028,0.626302083,0.274739583,-0.152777778,-0.039930556,-0.039930556,4,1.762503538,1.938525013,1.888526933,3.379911822,-0.152777778,1,1,1,0,0.493923611,0.453125,0.296875,0.172743056,0.701388889,0.551215278,0.365451389,0.184027778,1,57,33.12138333,"muffins","blevita",0,2,4,0.0143984184402909,-0.786315012711069,1
"4",1,4,1,4,1,10,2,1,1.572429653,0.260850694,0.417534722,0.268229167,0.604600694,-0.007378472,-0.187065972,-0.187065972,1,1.813897813,2.0965632,2.6136576,1.422693831,-0.007378472,4,1,1,0,0.300347222,0.221354167,0.342013889,0.493055556,0.308159722,0.228298611,0.590277778,0.618923611,1,57,33.12138333,"oreo","salad",1,4,2,-1.11662204052309,0.0636239250845915,0
"5",1,5,1,5,1,3,16,-1,1.436993991,0.485243056,0.625,0.329861111,0.737847222,0.155381944,-0.112847222,-0.112847222,2,1.822734507,2.121227378,1.63076096,1.489164231,0.155381944,8,1,1,0,0.463541667,0.506944444,0.663194444,0.586805556,0.316840278,0.342881944,0.821180556,0.654513889,1,57,33.12138333,"petitbeurre","plum",0,7,3,0.0346554960396628,-0.365106337515962,1
"12",1,12,1,12,1,26,30,1,1.441526329,0.304253472,0.067708333,0.493055556,0.013020833,-0.188802083,0.0546875,0.0546875,6,2.270968462,2.837418667,2.888347164,2.372276764,-0.188802083,1,1,1,0,0.271701389,0.336805556,0.078993056,0.056423611,0.644965278,0.341145833,0.018229167,0.0078125,1,57,33.12138333,"zucchini","radish",1,2,5,0.294621392647175,-0.701070401661952,1
"13",1,13,1,13,1,9,14,1,1.765836516,0.373697917,0.551649306,0.436631944,0.614583333,-0.062934028,-0.062934028,-0.062934028,3,2.329526044,1.906959218,2.979238969,1.897152853,-0.062934028,3,1,1,0,0.394097222,0.353298611,0.647569444,0.455729167,0.386284722,0.486979167,0.604166667,0.625,1,57,33.12138333,"orange","applered",1,3,3,-0.684470937648597,-0.653433704533762,0
"14",1,14,1,14,1,19,4,-1,1.762665813,0.337239583,0.309027778,0.347222222,0.371527778,-0.009982639,-0.0625,-0.0625,3,1.996787058,1.904550542,2.362687289,1.572754489,-0.009982639,4,1,1,0,0.310763889,0.363715278,0.373263889,0.244791667,0.311631944,0.3828125,0.388020833,0.355034722,1,57,33.12138333,"smarties","mikado",0,4,3,-1.096364955145,-0.655940900335578,1
"15",1,15,1,15,1,2,9,-1,1.192120889,0.268229167,0.604600694,0.373697917,0.551649306,-0.10546875,0.052951389,0.052951389,6,2.6136576,1.422693831,2.329526044,1.906959218,-0.10546875,2,1,1,0,0.308159722,0.228298611,0.590277778,0.618923611,0.394097222,0.353298611,0.647569444,0.455729167,1,57,33.12138333,"salad","orange",0,3,5,-0.353605253885844,-0.711099179092637,0
"16",1,16,1,16,1,31,20,-1,1.323469938,0.473524306,0.234809028,0.513888889,0.318576389,-0.040364583,-0.083767361,-0.083767361,3,1.762503538,1.938525013,2.588188871,1.554837618,-0.040364583,4,1,1,0,0.493923611,0.453125,0.296875,0.172743056,0.421006944,0.606770833,0.414930556,0.222222222,1,57,33.12138333,"muffins","snickers",0,4,3,-0.86003232610838,-0.533088369588957,1
"17",1,17,1,17,1,16,23,1,1.258801778,0.329861111,0.737847222,0.412326389,0.64453125,-0.082465278,0.093315972,0.093315972,6,1.63076096,1.489164231,1.979420444,2.030724124,-0.082465278,3,1,1,0,0.316840278,0.342881944,0.821180556,0.654513889,0.295138889,0.529513889,0.616319444,0.672743056,1,57,33.12138333,"plum","tomatoes",1,3,6,-0.532542816759709,-0.477930090831897,1
"25",1,25,1,25,1,7,8,-1,1.57311232,0.540798611,0.191840278,0.674045139,0.283420139,-0.133246528,-0.091579861,-0.091579861,3,1.729693867,1.655938276,2.988380871,1.597118009,-0.133246528,2,1,1,0,0.559027778,0.522569444,0.209201389,0.174479167,0.790798611,0.557291667,0.375,0.191840278,1,57,33.12138333,"muesli","lachgummi",0,2,3,-0.137529702448598,-0.487958868262583,1
"26",1,26,1,26,1,14,12,-1,1.246628124,0.436631944,0.614583333,0.791666667,0.696614583,-0.355034722,-0.08203125,-0.08203125,3,2.979238969,1.897152853,3.263822933,2.13839616,-0.355034722,0,1,1,0,0.386284722,0.486979167,0.604166667,0.625,0.799479167,0.783854167,0.729166667,0.6640625,1,57,33.12138333,"applered","pizza",0,1,3,1.58769851129913,-0.543117147019643,1
"27",1,27,1,27,1,1,15,1,1.740530916,0.626302083,0.274739583,0.1328125,0.081163194,0.493489583,0.193576389,0.193576389,8,1.888526933,3.379911822,2.73741184,1.70495488,0.493489583,0,1,1,0,0.701388889,0.551215278,0.365451389,0.184027778,0.15625,0.109375,0.145833333,0.016493056,1,57,33.12138333,"blevita","pringles",1,8,7,2.66470007851384,0.101231844782095,1
"28",1,28,1,28,1,25,21,-1,1.778432,0.70703125,0.466145833,0.355902778,0.354600694,0.351128472,0.111545139,0.111545139,7,2.272516978,1.979454578,2.289274738,1.670899627,0.351128472,0,1,1,0,0.806423611,0.607638889,0.435763889,0.496527778,0.348958333,0.362847222,0.363715278,0.345486111,1,57,33.12138333,"wasafibers","strawberries",0,8,6,1.55731288712135,-0.372627919144832,0
"29",1,29,1,29,1,5,27,1,1.288823467,0.523003472,0.405815972,0.381076389,0.238715278,0.141927083,0.167100694,0.167100694,8,2.68007936,1.555521138,2.29582336,1.929995378,0.141927083,7,1,1,0,0.572048611,0.473958333,0.420138889,0.391493056,0.322916667,0.439236111,0.3515625,0.125868056,1,57,33.12138333,"rizaulait","graneochips",1,7,7,-0.0700060974861583,-0.0517070240331591,1
"30",1,30,1,30,1,3,17,1,1.490266453,0.485243056,0.625,0.5,0.739583333,-0.014756944,-0.114583333,-0.114583333,2,1.822734507,2.121227378,2.363587413,1.889484089,-0.014756944,4,1,1,0,0.463541667,0.506944444,0.663194444,0.586805556,0.375,0.625,0.737847222,0.741319444,1,57,33.12138333,"petitbeurre","raisins",1,4,3,-1.05922697436034,-0.355077560085276,0
"38",1,38,2,8,1,10,8,1,2.189684053,0.260850694,0.417534722,0.674045139,0.283420139,-0.413194444,0.134114583,0.134114583,7,1.813897813,2.0965632,2.988380871,1.597118009,-0.413194444,0,1,1,0,0.300347222,0.221354167,0.342013889,0.493055556,0.790798611,0.557291667,0.375,0.191840278,1,57,33.12138333,"oreo","lachgummi",1,1,7,2.04010669177299,-0.242253806769341,1
"39",1,39,2,9,1,2,13,-1,1.134384356,0.268229167,0.604600694,0.292534722,0.708333333,-0.024305556,-0.103732639,-0.103732639,2,2.6136576,1.422693831,1.580664889,2.304880356,-0.024305556,4,1,1,0,0.308159722,0.228298611,0.590277778,0.618923611,0.325520833,0.259548611,0.685763889,0.730902778,1,57,33.12138333,"salad","pear",0,4,3,-0.984950997233573,-0.417757420471206,1
"40",1,40,2,10,1,7,15,1,1.212129849,0.540798611,0.191840278,0.1328125,0.081163194,0.407986111,0.110677083,0.110677083,7,1.729693867,1.655938276,2.73741184,1.70495488,0.407986111,0,1,1,0,0.559027778,0.522569444,0.209201389,0.174479167,0.15625,0.109375,0.145833333,0.016493056,1,57,33.12138333,"muesli","pringles",1,8,6,1.99959252879553,-0.377642310748463,1
"41",1,41,2,11,1,22,8,-1,1.389501156,0.384548611,0.392795139,0.674045139,0.283420139,-0.289496528,0.109375,0.109375,7,2.171847822,1.663582009,2.988380871,1.597118009,-0.289496528,0,1,1,0,0.227430556,0.541666667,0.297743056,0.487847222,0.790798611,0.557291667,0.375,0.191840278,1,57,33.12138333,"toblerone","lachgummi",0,1,6,1.07789526466251,-0.385163892377333,0
"46",1,46,2,16,1,17,9,-1,1.359373938,0.5,0.739583333,0.373697917,0.551649306,0.126302083,0.187934028,0.187934028,8,2.363587413,1.889484089,2.329526044,1.906959218,0.126302083,7,1,1,0,0.375,0.625,0.737847222,0.741319444,0.394097222,0.353298611,0.647569444,0.455729167,1,57,33.12138333,"raisins","orange",0,7,7,-0.191548594197269,0.0686383166882225,0
"47",1,47,2,17,1,8,27,1,1.509857564,0.674045139,0.283420139,0.381076389,0.238715278,0.29296875,0.044704861,0.044704861,5,2.988380871,1.597118009,2.29582336,1.929995378,0.29296875,0,1,1,0,0.790798611,0.557291667,0.375,0.191840278,0.322916667,0.439236111,0.3515625,0.125868056,1,57,33.12138333,"lachgummi","graneochips",1,8,5,1.10490470664749,-0.758735876220827,1
"48",1,48,2,18,1,18,27,1,2.004212622,0.434027778,0.402777778,0.381076389,0.238715278,0.052951389,0.1640625,0.1640625,8,2.046184391,2.621846471,2.29582336,1.929995378,0.052951389,6,1,1,0,0.40625,0.461805556,0.453993056,0.3515625,0.322916667,0.439236111,0.3515625,0.125868056,1,57,33.12138333,"rasberries","graneochips",1,5,7,-0.762123089189443,-0.0692573830927151,1
"49",1,49,2,19,1,8,19,1,1.65695232,0.674045139,0.283420139,0.337239583,0.309027778,0.336805556,-0.025607639,-0.025607639,4,2.988380871,1.597118009,1.996787058,1.904550542,0.336805556,0,1,1,0,0.790798611,0.557291667,0.375,0.191840278,0.310763889,0.363715278,0.373263889,0.244791667,1,57,33.12138333,"lachgummi","smarties",1,8,4,1.44589893698865,-0.869052433734947,0
"50",1,50,2,20,1,18,1,-1,1.594658987,0.434027778,0.402777778,0.626302083,0.274739583,-0.192274306,0.128038194,0.128038194,7,2.046184391,2.621846471,1.888526933,3.379911822,-0.192274306,1,1,1,0,0.40625,0.461805556,0.453993056,0.3515625,0.701388889,0.551215278,0.365451389,0.184027778,1,57,33.12138333,"rasberries","blevita",0,1,6,0.32163084241087,-0.277354530665029,0
"51",1,51,2,21,1,22,1,1,1.505278293,0.384548611,0.392795139,0.626302083,0.274739583,-0.241753472,0.118055556,0.118055556,7,2.171847822,1.663582009,1.888526933,3.379911822,-0.241753472,0,1,1,0,0.227430556,0.541666667,0.297743056,0.487847222,0.701388889,0.551215278,0.365451389,0.184027778,1,57,33.12138333,"toblerone","blevita",1,1,6,0.706515410143575,-0.335019999447328,1
"52",1,52,2,22,1,21,20,-1,1.812381582,0.355902778,0.354600694,0.513888889,0.318576389,-0.157986111,0.036024306,0.036024306,5,2.289274738,1.670899627,2.588188871,1.554837618,-0.157986111,1,1,1,0,0.348958333,0.362847222,0.363715278,0.345486111,0.421006944,0.606770833,0.414930556,0.222222222,1,57,33.12138333,"strawberries","snickers",0,2,5,0.0549125814177547,-0.808879763374256,0
"58",1,58,3,1,1,6,17,1,2.353138631,0.616753472,0.557725694,0.5,0.739583333,0.116753472,-0.181857639,-0.181857639,1,1.621272178,1.672655502,2.363587413,1.889484089,0.116753472,7,1,1,0,0.671006944,0.5625,0.556423611,0.559027778,0.375,0.625,0.737847222,0.741319444,1,57,33.12138333,"mandm","raisins",1,6,2,-0.265824563545313,0.0335375927925341,0
"59",1,59,3,2,1,31,5,1,2.035565796,0.473524306,0.234809028,0.523003472,0.405815972,-0.049479167,-0.171006944,-0.171006944,1,1.762503538,1.938525013,2.68007936,1.555521138,-0.049479167,4,1,1,0,0.493923611,0.453125,0.296875,0.172743056,0.572048611,0.473958333,0.420138889,0.391493056,1,57,33.12138333,"muffins","rizaulait",1,4,2,-0.789132531174419,-0.0291422733699721,0
"60",1,60,3,3,1,9,13,1,1.979377778,0.373697917,0.551649306,0.292534722,0.708333333,0.081163194,-0.156684028,-0.156684028,1,2.329526044,1.906959218,1.580664889,2.304880356,0.081163194,6,1,1,0,0.394097222,0.353298611,0.647569444,0.455729167,0.325520833,0.259548611,0.685763889,0.730902778,1,57,33.12138333,"orange","pear",1,6,2,-0.542671363338115,-0.111879688617274,0
"61",1,61,3,4,1,21,1,1,1.466881422,0.355902778,0.354600694,0.626302083,0.274739583,-0.270399306,0.079861111,0.079861111,6,2.289274738,1.670899627,1.888526933,3.379911822,-0.270399306,0,1,1,0,0.348958333,0.362847222,0.363715278,0.345486111,0.701388889,0.551215278,0.365451389,0.184027778,1,57,33.12138333,"strawberries","blevita",1,1,6,0.929343325966426,-0.555653120252144,1
"68",1,68,3,11,1,31,8,-1,1.874582187,0.473524306,0.234809028,0.674045139,0.283420139,-0.200520833,-0.048611111,-0.048611111,4,1.762503538,1.938525013,2.988380871,1.597118009,-0.200520833,0,1,1,0,0.493923611,0.453125,0.296875,0.172743056,0.790798611,0.557291667,0.375,0.191840278,1,57,33.12138333,"muffins","lachgummi",0,1,4,0.385778265180508,-0.73617112555764,1
"69",1,69,3,12,1,17,32,-1,1.83056384,0.5,0.739583333,0.500434028,0.761284722,-0.000434028,-0.021701389,-0.021701389,4,2.363587413,1.889484089,1.413638542,1.931255324,-0.000434028,4,1,1,0,0.375,0.625,0.737847222,0.741319444,0.493055556,0.5078125,0.823784722,0.698784722,1,57,33.12138333,"raisins","yogurt",0,5,4,-1.17064092449304,-0.891617184398134,1
"70",1,70,3,13,1,10,22,-1,1.350471111,0.260850694,0.417534722,0.384548611,0.392795139,-0.123697917,0.024739583,0.024739583,5,1.813897813,2.0965632,2.171847822,1.663582009,-0.123697917,2,1,1,0,0.300347222,0.221354167,0.342013889,0.493055556,0.227430556,0.541666667,0.297743056,0.487847222,1,57,33.12138333,"oreo","toblerone",0,3,5,-0.211805671796641,-0.874066825338577,0
"71",1,71,3,14,1,8,29,1,1.307988764,0.674045139,0.283420139,0.55078125,0.377604167,0.123263889,-0.094184028,-0.094184028,3,2.988380871,1.597118009,2.412995129,2.104331378,0.123263889,7,1,1,0,0.790798611,0.557291667,0.375,0.191840278,0.578993056,0.522569444,0.374131944,0.381076389,1,57,33.12138333,"lachgummi","sourcreamchips",1,7,3,-0.215181853989443,-0.472915699228266,0
"72",1,72,3,15,1,21,28,1,1.573779911,0.355902778,0.354600694,0.305989583,0.488715278,0.049913194,-0.134114583,-0.134114583,2,2.289274738,1.670899627,1.754060942,1.996853333,0.049913194,5,1,1,0,0.348958333,0.362847222,0.363715278,0.345486111,0.282986111,0.328993056,0.591145833,0.386284722,1,57,33.12138333,"strawberries","paprikachips",1,5,2,-0.785756356760337,-0.242253806769341,0
"78",1,78,3,21,1,6,29,-1,2.703106844,0.616753472,0.557725694,0.55078125,0.377604167,0.065972222,0.180121528,0.180121528,8,1.621272178,1.672655502,2.412995129,2.104331378,0.065972222,6,1,1,0,0.671006944,0.5625,0.556423611,0.559027778,0.578993056,0.522569444,0.374131944,0.381076389,1,57,33.12138333,"mandm","sourcreamchips",0,6,7,-0.660837677856424,0.0235088153618485,0
"79",1,79,3,22,1,21,18,-1,1.574512924,0.355902778,0.354600694,0.434027778,0.402777778,-0.078125,-0.048177083,-0.048177083,4,2.289274738,1.670899627,2.046184391,2.621846471,-0.078125,3,1,1,0,0.348958333,0.362847222,0.363715278,0.345486111,0.40625,0.461805556,0.453993056,0.3515625,1,57,33.12138333,"strawberries","rasberries",0,3,4,-0.566304623130288,-0.738678321359455,1
"80",1,80,3,23,1,17,11,-1,2.320211911,0.5,0.739583333,0.388888889,0.893229167,0.111111111,-0.153645833,-0.153645833,1,2.363587413,1.889484089,2.06403328,1.730654151,0.111111111,7,1,1,0,0.375,0.625,0.737847222,0.741319444,0.388020833,0.389756944,0.879340278,0.907118056,1,57,33.12138333,"raisins","chocolatechipcookie",0,6,2,-0.309714908715578,-0.129430053453406,1
"81",1,81,3,24,1,31,15,1,1.164739698,0.473524306,0.234809028,0.1328125,0.081163194,0.340711806,0.153645833,0.153645833,8,1.762503538,1.938525013,2.73741184,1.70495488,0.340711806,0,1,1,0,0.493923611,0.453125,0.296875,0.172743056,0.15625,0.109375,0.145833333,0.016493056,1,57,33.12138333,"muffins","pringles",1,8,7,1.47628456116643,-0.129430053453406,1
"82",1,82,3,25,1,28,6,1,2.220472889,0.305989583,0.488715278,0.616753472,0.557725694,-0.310763889,-0.069010417,-0.069010417,3,1.754060942,1.996853333,1.621272178,1.672655502,-0.310763889,0,1,1,0,0.282986111,0.328993056,0.591145833,0.386284722,0.671006944,0.5625,0.556423611,0.559027778,1,57,33.12138333,"paprikachips","mandm",1,1,3,1.24332810654389,-0.618332980638074,0
"88",1,88,4,1,1,9,28,1,1.443392284,0.373697917,0.551649306,0.305989583,0.488715278,0.067708333,0.062934028,0.062934028,6,2.329526044,1.906959218,1.754060942,1.996853333,0.067708333,6,1,1,0,0.394097222,0.353298611,0.647569444,0.455729167,0.282986111,0.328993056,0.591145833,0.386284722,1,57,33.12138333,"orange","paprikachips",1,6,6,-0.647332956863936,-0.653433704533762,1
"89",1,89,4,2,1,13,12,-1,1.362581902,0.292534722,0.708333333,0.791666667,0.696614583,-0.499131944,0.01171875,0.01171875,5,1.580664889,2.304880356,3.263822933,2.13839616,-0.499131944,0,1,1,0,0.325520833,0.259548611,0.685763889,0.730902778,0.799479167,0.783854167,0.729166667,0.6640625,1,57,33.12138333,"pear","pizza",0,1,5,2.70859042368411,-0.949282658957009,0
"90",1,90,4,3,1,7,29,-1,2.338036622,0.540798611,0.191840278,0.55078125,0.377604167,-0.009982639,-0.185763889,-0.185763889,1,1.729693867,1.655938276,2.412995129,2.104331378,-0.009982639,4,1,1,0,0.559027778,0.522569444,0.209201389,0.174479167,0.578993056,0.522569444,0.374131944,0.381076389,1,57,33.12138333,"muesli","sourcreamchips",0,4,2,-1.096364955145,0.0561023434557212,1
"91",1,91,4,4,1,22,5,-1,1.929152284,0.384548611,0.392795139,0.523003472,0.405815972,-0.138454861,-0.013020833,-0.013020833,4,2.171847822,1.663582009,2.68007936,1.555521138,-0.138454861,2,1,1,0,0.227430556,0.541666667,0.297743056,0.487847222,0.572048611,0.473958333,0.420138889,0.391493056,1,57,33.12138333,"toblerone","rizaulait",0,2,4,-0.0970155394711341,-0.941761077328139,1
"92",1,92,4,5,1,28,14,-1,1.252514133,0.305989583,0.488715278,0.436631944,0.614583333,-0.130642361,-0.125868056,-0.125868056,2,1.754060942,1.996853333,2.979238969,1.897152853,-0.130642361,2,1,1,0,0.282986111,0.328993056,0.591145833,0.386284722,0.386284722,0.486979167,0.604166667,0.625,1,57,33.12138333,"paprikachips","applered",0,2,3,-0.15778678782669,-0.289890498120954,1
"93",1,93,4,6,1,27,21,-1,1.148131271,0.381076389,0.238715278,0.355902778,0.354600694,0.025173611,-0.115885417,-0.115885417,2,2.29582336,1.929995378,2.289274738,1.670899627,0.025173611,5,1,1,0,0.322916667,0.439236111,0.3515625,0.125868056,0.348958333,0.362847222,0.363715278,0.345486111,1,57,33.12138333,"graneochips","strawberries",0,5,3,-0.978198640626689,-0.34755597267983,1
"94",1,94,4,7,1,13,23,1,1.840907947,0.292534722,0.708333333,0.412326389,0.64453125,-0.119791667,0.063802083,0.063802083,6,1.580664889,2.304880356,1.979420444,2.030724124,-0.119791667,2,1,1,0,0.325520833,0.259548611,0.685763889,0.730902778,0.295138889,0.529513889,0.616319444,0.672743056,1,57,33.12138333,"pear","tomatoes",1,3,6,-0.242191295974419,-0.648419318706707,1
"102",1,102,4,15,1,18,22,1,1.954518756,0.434027778,0.402777778,0.384548611,0.392795139,0.049479167,0.009982639,0.009982639,5,2.046184391,2.621846471,2.171847822,1.663582009,0.049479167,5,1,1,0,0.40625,0.461805556,0.453993056,0.3515625,0.227430556,0.541666667,0.297743056,0.487847222,1,57,33.12138333,"rasberries","toblerone",1,5,5,-0.789132531174419,-0.959311436387695,1
"103",1,103,4,16,1,21,4,1,2.815792071,0.355902778,0.354600694,0.347222222,0.371527778,0.008680556,-0.016927083,-0.016927083,4,2.289274738,1.670899627,2.362687289,1.572754489,0.008680556,5,1,1,0,0.348958333,0.362847222,0.363715278,0.345486111,0.311631944,0.3828125,0.388020833,0.355034722,1,57,33.12138333,"strawberries","mikado",1,5,4,-1.10649349394468,-0.919196326664952,0
"104",1,104,4,17,1,1,27,1,1.518627556,0.626302083,0.274739583,0.381076389,0.238715278,0.245225694,0.036024306,0.036024306,5,1.888526933,3.379911822,2.29582336,1.929995378,0.245225694,0,1,1,0,0.701388889,0.551215278,0.365451389,0.184027778,0.322916667,0.439236111,0.3515625,0.125868056,1,57,33.12138333,"blevita","graneochips",1,8,5,0.733524852128551,-0.808879763374256,1
"105",1,105,4,18,1,18,8,-1,0.893412409,0.434027778,0.402777778,0.674045139,0.283420139,-0.240017361,0.119357639,0.119357639,7,2.046184391,2.621846471,2.988380871,1.597118009,-0.240017361,0,1,1,0,0.40625,0.461805556,0.453993056,0.3515625,0.790798611,0.557291667,0.375,0.191840278,1,57,33.12138333,"rasberries","lachgummi",0,1,6,0.693010689151088,-0.327498417818458,0
"106",1,106,4,19,1,10,9,-1,1.498107449,0.260850694,0.417534722,0.373697917,0.551649306,-0.112847222,-0.134114583,-0.134114583,2,1.813897813,2.0965632,2.329526044,1.906959218,-0.112847222,2,1,1,0,0.300347222,0.221354167,0.342013889,0.493055556,0.394097222,0.353298611,0.647569444,0.455729167,1,57,33.12138333,"oreo","orange",0,3,2,-0.296210187723091,-0.242253806769341,1
"107",1,107,4,20,1,26,27,1,1.292133547,0.304253472,0.067708333,0.381076389,0.238715278,-0.076822917,-0.171006944,-0.171006944,1,2.270968462,2.837418667,2.29582336,1.929995378,-0.076822917,3,1,1,0,0.271701389,0.336805556,0.078993056,0.056423611,0.322916667,0.439236111,0.3515625,0.125868056,1,57,33.12138333,"zucchini","graneochips",1,3,2,-0.576433161929974,-0.0291422733699721,0
"108",1,108,4,21,1,24,8,-1,1.31828736,0.313368056,0.465711806,0.674045139,0.283420139,-0.360677083,0.182291667,0.182291667,8,2.347235982,1.929689884,2.988380871,1.597118009,-0.360677083,0,1,1,0,0.300347222,0.326388889,0.416666667,0.514756944,0.790798611,0.557291667,0.375,0.191840278,1,57,33.12138333,"twix","lachgummi",0,1,7,1.6315888564694,0.0360447885943496,0
"113",1,113,5,1,1,9,16,-1,1.496344462,0.373697917,0.551649306,0.329861111,0.737847222,0.043836806,-0.186197917,-0.186197917,1,2.329526044,1.906959218,1.63076096,1.489164231,0.043836806,5,0,1,0,0.394097222,0.353298611,0.647569444,0.455729167,0.316840278,0.342881944,0.821180556,0.654513889,1,57,33.12138333,"orange","plum",0,5,2,-0.833022876344684,0.0586095392575367,1
"114",1,114,5,2,1,20,24,-1,1.509161529,0.513888889,0.318576389,0.313368056,0.465711806,0.200520833,-0.147135417,-0.147135417,2,2.588188871,1.554837618,2.347235982,1.929689884,0.200520833,0,0,1,0,0.421006944,0.606770833,0.414930556,0.222222222,0.300347222,0.326388889,0.416666667,0.514756944,1,57,33.12138333,"snickers","twix",0,8,2,0.385778265180508,-0.167037967374334,1
"115",1,115,5,3,1,4,22,-1,0.957989547,0.347222222,0.371527778,0.384548611,0.392795139,-0.037326389,-0.021267361,-0.021267361,4,2.362687289,1.572754489,2.171847822,1.663582009,-0.037326389,4,0,1,0,0.311631944,0.3828125,0.388020833,0.355034722,0.227430556,0.541666667,0.297743056,0.487847222,1,57,33.12138333,"mikado","toblerone",0,4,4,-0.883665585900554,-0.894124380199949,1
"116",1,116,5,4,1,7,4,-1,1.812243627,0.540798611,0.191840278,0.347222222,0.371527778,0.193576389,-0.1796875,-0.1796875,1,1.729693867,1.655938276,2.362687289,1.572754489,0.193576389,8,0,1,0,0.559027778,0.522569444,0.209201389,0.174479167,0.311631944,0.3828125,0.388020833,0.355034722,1,57,33.12138333,"muesli","mikado",0,8,2,0.331759381210556,0.021001619560033,1
"117",1,117,5,5,1,6,18,-1,0.901307449,0.616753472,0.557725694,0.434027778,0.402777778,0.182725694,0.154947917,0.154947917,8,1.621272178,1.672655502,2.046184391,2.621846471,0.182725694,8,0,1,0,0.671006944,0.5625,0.556423611,0.559027778,0.40625,0.461805556,0.453993056,0.3515625,1,57,33.12138333,"mandm","rasberries",0,7,7,0.247354865284107,-0.12190846604796,0
"118",1,118,5,6,1,28,25,1,1.285812338,0.305989583,0.488715278,0.70703125,0.466145833,-0.401041667,0.022569444,0.022569444,5,1.754060942,1.996853333,2.272516978,1.979454578,-0.401041667,0,0,1,0,0.282986111,0.328993056,0.591145833,0.386284722,0.806423611,0.607638889,0.435763889,0.496527778,1,57,33.12138333,"paprikachips","wasafibers",1,1,5,1.94557364482558,-0.886602798571079,1
"124",1,124,5,12,1,19,1,-1,1.290197902,0.337239583,0.309027778,0.626302083,0.274739583,-0.2890625,0.034288194,0.034288194,5,1.996787058,1.904550542,1.888526933,3.379911822,-0.2890625,0,0,1,0,0.310763889,0.363715278,0.373263889,0.244791667,0.701388889,0.551215278,0.365451389,0.184027778,1,57,33.12138333,"smarties","blevita",0,1,5,1.07451908246971,-0.818908546581518,0
"125",1,125,5,13,1,6,3,-1,1.97014528,0.616753472,0.557725694,0.485243056,0.625,0.131510417,-0.067274306,-0.067274306,3,1.621272178,1.672655502,1.822734507,2.121227378,0.131510417,7,0,1,0,0.671006944,0.5625,0.556423611,0.559027778,0.463541667,0.506944444,0.663194444,0.586805556,1,57,33.12138333,"mandm","petitbeurre",0,7,3,-0.151034423441086,-0.62836175806876,1
"126",1,126,5,14,1,1,10,-1,2.458179982,0.626302083,0.274739583,0.260850694,0.417534722,0.365451389,-0.142795139,-0.142795139,2,1.888526933,3.379911822,1.813897813,2.0965632,0.365451389,0,0,1,0,0.701388889,0.551215278,0.365451389,0.184027778,0.300347222,0.221354167,0.342013889,0.493055556,1,57,33.12138333,"blevita","oreo",0,8,2,1.66872684503278,-0.192109913839336,1
"127",1,127,5,15,1,27,22,-1,1.744628338,0.381076389,0.238715278,0.384548611,0.392795139,-0.003472222,-0.154079861,-0.154079861,1,2.29582336,1.929995378,2.171847822,1.663582009,-0.003472222,4,0,1,0,0.322916667,0.439236111,0.3515625,0.125868056,0.227430556,0.541666667,0.297743056,0.487847222,1,57,33.12138333,"graneochips","toblerone",0,4,2,-1.14700766470087,-0.12692285765159,1
"128",1,128,5,16,1,18,19,-1,1.492378738,0.434027778,0.402777778,0.337239583,0.309027778,0.096788194,0.09375,0.09375,6,2.046184391,2.621846471,1.996787058,1.904550542,0.096788194,6,0,1,0,0.40625,0.461805556,0.453993056,0.3515625,0.310763889,0.363715278,0.373263889,0.244791667,1,57,33.12138333,"rasberries","smarties",0,6,6,-0.421128866627004,-0.475422895030082,0
"136",1,136,5,24,1,25,18,-1,1.706313671,0.70703125,0.466145833,0.434027778,0.402777778,0.273003472,0.063368056,0.063368056,6,2.272516978,1.979454578,2.046184391,2.621846471,0.273003472,0,0,1,0,0.806423611,0.607638889,0.435763889,0.496527778,0.40625,0.461805556,0.453993056,0.3515625,1,57,33.12138333,"wasafibers","rasberries",0,8,6,0.949600403565798,-0.650926508731947,0
"137",1,137,5,25,1,1,25,-1,1.512028444,0.626302083,0.274739583,0.70703125,0.466145833,-0.080729167,-0.19140625,-0.19140625,1,1.888526933,3.379911822,2.272516978,1.979454578,-0.080729167,3,0,1,0,0.701388889,0.551215278,0.365451389,0.184027778,0.806423611,0.607638889,0.435763889,0.496527778,1,57,33.12138333,"blevita","wasafibers",0,3,2,-0.546047537752197,0.088695871549594,1
"138",1,138,5,26,1,18,29,-1,0.903953636,0.434027778,0.402777778,0.55078125,0.377604167,-0.116753472,0.025173611,0.025173611,5,2.046184391,2.621846471,2.412995129,2.104331378,-0.116753472,2,0,1,0,0.40625,0.461805556,0.453993056,0.3515625,0.578993056,0.522569444,0.374131944,0.381076389,1,57,33.12138333,"rasberries","sourcreamchips",0,3,5,-0.265824563545313,-0.871559629536762,0
"139",1,139,5,27,1,3,28,1,1.631573333,0.485243056,0.625,0.305989583,0.488715278,0.179253472,0.136284722,0.136284722,7,1.822734507,2.121227378,1.754060942,1.996853333,0.179253472,8,0,1,0,0.463541667,0.506944444,0.663194444,0.586805556,0.282986111,0.328993056,0.591145833,0.386284722,1,57,33.12138333,"petitbeurre","paprikachips",1,7,7,0.220345423299131,-0.22971783353684,1
"140",1,140,5,28,1,12,6,1,2.388936818,0.791666667,0.696614583,0.616753472,0.557725694,0.174913194,0.138888889,0.138888889,7,3.263822933,2.13839616,1.621272178,1.672655502,0.174913194,8,0,1,0,0.799479167,0.783854167,0.729166667,0.6640625,0.671006944,0.5625,0.556423611,0.559027778,1,57,33.12138333,"pizza","mandm",1,7,7,0.186583616928552,-0.214674664502523,1
"141",1,141,5,29,1,23,24,-1,1.375544604,0.412326389,0.64453125,0.313368056,0.465711806,0.098958333,0.178819444,0.178819444,8,1.979420444,2.030724124,2.347235982,1.929689884,0.098958333,6,0,1,0,0.295138889,0.529513889,0.616319444,0.672743056,0.300347222,0.326388889,0.416666667,0.514756944,1,57,33.12138333,"tomatoes","twix",0,6,7,-0.404247963441714,0.015987227956402,0
"146",1,146,6,1,1,27,29,-1,1.235869867,0.381076389,0.238715278,0.55078125,0.377604167,-0.169704861,-0.138888889,-0.138888889,2,2.29582336,1.929995378,2.412995129,2.104331378,-0.169704861,1,0,1,0,0.322916667,0.439236111,0.3515625,0.125868056,0.578993056,0.522569444,0.374131944,0.381076389,1,57,33.12138333,"graneochips","sourcreamchips",0,2,2,0.146069453951088,-0.214674664502523,1
"147",1,147,6,2,1,28,4,-1,1.843190898,0.305989583,0.488715278,0.347222222,0.371527778,-0.041232639,0.1171875,0.1171875,7,1.754060942,1.996853333,2.362687289,1.572754489,-0.041232639,4,0,1,0,0.282986111,0.328993056,0.591145833,0.386284722,0.311631944,0.3828125,0.388020833,0.355034722,1,57,33.12138333,"paprikachips","mikado",0,4,6,-0.853279961722776,-0.340034391050959,0
"148",1,148,6,3,1,24,29,-1,1.615727787,0.313368056,0.465711806,0.55078125,0.377604167,-0.237413194,0.088107639,0.088107639,6,2.347235982,1.929689884,2.412995129,2.104331378,-0.237413194,0,0,1,0,0.300347222,0.326388889,0.416666667,0.514756944,0.578993056,0.522569444,0.374131944,0.381076389,1,57,33.12138333,"twix","sourcreamchips",0,1,6,0.672753603772996,-0.508016423123954,0
"149",1,149,6,4,1,3,24,1,1.571320604,0.485243056,0.625,0.313368056,0.465711806,0.171875,0.159288194,0.159288194,8,1.822734507,2.121227378,2.347235982,1.929689884,0.171875,8,0,1,0,0.463541667,0.506944444,0.663194444,0.586805556,0.300347222,0.326388889,0.416666667,0.514756944,1,57,33.12138333,"petitbeurre","twix",1,7,7,0.162950357136378,-0.0968365253595331,1
"156",1,156,6,11,1,21,22,1,1.623121636,0.355902778,0.354600694,0.384548611,0.392795139,-0.028645833,-0.038194444,-0.038194444,4,2.289274738,1.670899627,2.171847822,1.663582009,-0.028645833,4,0,1,0,0.348958333,0.362847222,0.363715278,0.345486111,0.227430556,0.541666667,0.297743056,0.487847222,1,57,33.12138333,"strawberries","toblerone",1,4,4,-0.951189198641713,-0.796343795918331,0
"157",1,157,6,12,1,29,22,1,1.8895488,0.55078125,0.377604167,0.384548611,0.392795139,0.166232639,-0.015190972,-0.015190972,4,2.412995129,2.104331378,2.171847822,1.663582009,0.166232639,8,0,1,0,0.578993056,0.522569444,0.374131944,0.381076389,0.227430556,0.541666667,0.297743056,0.487847222,1,57,33.12138333,"sourcreamchips","toblerone",1,7,4,0.119060011966112,-0.929225104095637,0
"158",1,158,6,13,1,27,31,-1,0.924629618,0.381076389,0.238715278,0.473524306,0.234809028,-0.092447917,0.00390625,0.00390625,5,2.29582336,1.929995378,1.762503538,1.938525013,-0.092447917,3,0,1,0,0.322916667,0.439236111,0.3515625,0.125868056,0.493923611,0.453125,0.296875,0.172743056,1,57,33.12138333,"graneochips","muffins",0,3,5,-0.454890665218863,-0.994412160283383,0
"159",1,159,6,14,1,16,17,-1,1.617855716,0.329861111,0.737847222,0.5,0.739583333,-0.170138889,-0.001736111,-0.001736111,4,1.63076096,1.489164231,2.363587413,1.889484089,-0.170138889,1,0,1,0,0.316840278,0.342881944,0.821180556,0.654513889,0.375,0.625,0.737847222,0.741319444,1,57,33.12138333,"plum","raisins",0,2,4,0.14944563614389,-1.00694813351588,1
"166",1,166,6,21,1,27,19,-1,1.731982791,0.381076389,0.238715278,0.337239583,0.309027778,0.043836806,-0.0703125,-0.0703125,3,2.29582336,1.929995378,1.996787058,1.904550542,0.043836806,5,0,1,0,0.322916667,0.439236111,0.3515625,0.125868056,0.310763889,0.363715278,0.373263889,0.244791667,1,57,33.12138333,"graneochips","smarties",0,5,3,-0.833022876344684,-0.610811399009204,1
"167",1,167,6,22,1,4,24,-1,1.471080391,0.347222222,0.371527778,0.313368056,0.465711806,0.033854167,-0.094184028,-0.094184028,3,2.362687289,1.572754489,2.347235982,1.929689884,0.033854167,5,0,1,0,0.311631944,0.3828125,0.388020833,0.355034722,0.300347222,0.326388889,0.416666667,0.514756944,1,57,33.12138333,"mikado","twix",0,5,3,-0.91067502788553,-0.472915699228266,1
"168",1,168,6,23,1,28,18,-1,1.661416107,0.305989583,0.488715278,0.434027778,0.402777778,-0.128038194,0.0859375,0.0859375,6,1.754060942,1.996853333,2.046184391,2.621846471,-0.128038194,2,0,1,0,0.282986111,0.328993056,0.591145833,0.386284722,0.40625,0.461805556,0.453993056,0.3515625,1,57,33.12138333,"paprikachips","rasberries",0,2,6,-0.178043873204781,-0.520552396356456,0
"169",1,169,6,24,1,5,25,-1,2.588141227,0.523003472,0.405815972,0.70703125,0.466145833,-0.184027778,-0.060329861,-0.060329861,3,2.68007936,1.555521138,2.272516978,1.979454578,-0.184027778,1,0,1,0,0.572048611,0.473958333,0.420138889,0.391493056,0.806423611,0.607638889,0.435763889,0.496527778,1,57,33.12138333,"rizaulait","wasafibers",0,2,4,0.257483411862513,-0.668476873568079,1
"170",1,170,6,25,1,1,29,-1,1.429070222,0.626302083,0.274739583,0.55078125,0.377604167,0.075520833,-0.102864583,-0.102864583,2,1.888526933,3.379911822,2.412995129,2.104331378,0.075520833,6,0,1,0,0.701388889,0.551215278,0.365451389,0.184027778,0.578993056,0.522569444,0.374131944,0.381076389,1,57,33.12138333,"blevita","sourcreamchips",0,6,3,-0.58656170850838,-0.422771812074837,1
"171",1,171,6,26,1,7,26,1,1.97716736,0.540798611,0.191840278,0.304253472,0.067708333,0.236545139,0.124131944,0.124131944,7,1.729693867,1.655938276,2.270968462,2.837418667,0.236545139,0,0,1,0,0.559027778,0.522569444,0.209201389,0.174479167,0.271701389,0.336805556,0.078993056,0.056423611,1,57,33.12138333,"muesli","zucchini",1,8,6,0.666001247166112,-0.299919281328216,1
"172",1,172,6,27,1,14,10,1,1.24863488,0.436631944,0.614583333,0.260850694,0.417534722,0.17578125,0.197048611,0.197048611,8,2.979238969,1.897152853,1.813897813,2.0965632,0.17578125,8,0,1,0,0.386284722,0.486979167,0.604166667,0.625,0.300347222,0.221354167,0.342013889,0.493055556,1,57,33.12138333,"applered","oreo",1,7,7,0.193335981314155,0.121289399643467,1
"182",1,6,1,6,1,22,30,1,1.628469898,0.439670139,0.647135417,0.203993056,0.674479167,0.235677083,-0.02734375,-0.02734375,4,2.622142581,2.123720393,3.23841708,1.619346922,0.235677083,0,0,0,0,0.381076389,0.498263889,0.575520833,0.71875,0.300347222,0.107638889,0.6015625,0.747395833,1,57,32.8022,"bueno","mars",1,8,4,0.659248882780508,-0.859023656304261,0
"183",1,7,1,7,1,7,8,-1,1.6676242,0.780815972,0.285590278,0.311197917,0.260416667,0.469618056,0.025173611,0.025173611,5,3.127466806,1.954281296,1.948185517,1.887498795,0.469618056,0,0,0,0,0.778645833,0.782986111,0.407986111,0.163194444,0.387152778,0.235243056,0.384548611,0.136284722,1,57,32.8022,"broccoli","carrot",0,8,5,2.47901015903309,-0.871559629536762,0
"184",1,8,1,8,1,2,13,1,2.051962536,0.391927083,0.421875,0.876736111,0.222222222,-0.484809028,0.199652778,0.199652778,8,2.372858598,1.805807012,2.537386909,2.025059811,-0.484809028,0,0,0,0,0.471354167,0.3125,0.588541667,0.255208333,0.844618056,0.908854167,0.142361111,0.302083333,1,57,32.8022,"balisto","darvida",1,1,8,2.5971764735514,0.136332568677784,1
"185",1,9,1,9,1,23,30,1,1.239318483,0.848524306,0.777777778,0.203993056,0.674479167,0.64453125,0.103298611,0.103298611,7,3.282252621,2.522195033,3.23841708,1.619346922,0.64453125,0,0,0,0,0.817708333,0.879340278,0.730034722,0.825520833,0.300347222,0.107638889,0.6015625,0.747395833,1,57,32.8022,"kitkat","mars",1,8,6,3.83961088264749,-0.420264616273022,1
"191",1,15,1,15,1,5,2,-1,1.913082694,0.112847222,0.391059028,0.391927083,0.421875,-0.279079861,-0.030815972,-0.030815972,4,1.685426136,3.523201254,2.372858598,1.805807012,-0.279079861,0,0,0,0,0.108506944,0.1171875,0.270833333,0.511284722,0.471354167,0.3125,0.588541667,0.255208333,1,57,32.8022,"torino","balisto",0,1,4,0.996866930928865,-0.838966101442889,1
"192",1,16,1,16,1,29,32,-1,1.550808689,0.162760417,0.134548611,0.441840278,0.042100694,-0.279079861,0.092447917,0.092447917,6,3.194139797,2.99551133,2.076566526,2.22030126,-0.279079861,0,0,0,0,0.175347222,0.150173611,0.122395833,0.146701389,0.481770833,0.401909722,0.0546875,0.029513889,1,57,32.8022,"maoam","meringues",0,1,6,0.996866930928865,-0.482944476658952,0
"193",1,17,1,17,1,17,7,1,1.169060217,0.421440972,0.373263889,0.780815972,0.285590278,-0.359375,0.087673611,0.087673611,6,3.16116035,2.059307595,3.127466806,1.954281296,-0.359375,0,0,0,0,0.399305556,0.443576389,0.324652778,0.421875,0.778645833,0.782986111,0.407986111,0.163194444,1,57,32.8022,"caramel","broccoli",1,1,6,1.62146031766971,-0.51052361892577,1
"194",1,18,1,18,1,15,12,1,1.365368758,0.350260417,0.707465278,0.137152778,0.727430556,0.213107639,-0.019965278,-0.019965278,4,1.961086764,2.465233106,1.840297568,4.213354851,0.213107639,0,0,0,0,0.332465278,0.368055556,0.793402778,0.621527778,0.127604167,0.146701389,0.707465278,0.747395833,1,57,32.8022,"galak","croissant",1,8,4,0.483687502099445,-0.901645961828819,0
"199",1,23,1,23,1,17,1,1,2.059370315,0.421440972,0.373263889,0.101996528,0.296875,0.319444444,0.076388889,0.076388889,6,3.16116035,2.059307595,2.417928911,2.797818826,0.319444444,0,0,0,0,0.399305556,0.443576389,0.324652778,0.421875,0.09375,0.110243056,0.442708333,0.151041667,1,57,32.8022,"caramel","pineapple",1,8,6,1.31085171150633,-0.575710675113515,1
"200",1,24,1,24,1,10,13,-1,1.279181905,0.380208333,0.207465278,0.876736111,0.222222222,-0.496527778,-0.014756944,-0.014756944,4,2.272813912,2.416859259,2.537386909,2.025059811,-0.496527778,0,0,0,0,0.3515625,0.408854167,0.212673611,0.202256944,0.844618056,0.908854167,0.142361111,0.302083333,1,57,32.8022,"lemon","darvida",0,1,4,2.68833334608473,-0.931732299897453,1
"201",1,25,1,25,1,19,24,1,1.029775042,0.318142361,0.559461806,0.402777778,0.473958333,-0.084635417,0.085503472,0.085503472,6,2.588982228,2.695134356,2.30738397,2.623006864,-0.084635417,3,0,0,0,0.359375,0.276909722,0.590277778,0.528645833,0.3828125,0.422743056,0.631944444,0.315972222,1,57,32.8022,"cottagecheese","kiwi",1,3,6,-0.515661913574419,-0.523059592158271,1
"202",1,26,1,26,1,13,28,-1,2.155775538,0.876736111,0.222222222,0.514756944,0.15625,0.361979167,0.065972222,0.065972222,6,2.537386909,2.025059811,2.594807074,2.233435894,0.361979167,0,0,0,0,0.844618056,0.908854167,0.142361111,0.302083333,0.626736111,0.402777778,0.180555556,0.131944444,1,57,32.8022,"darvida","mango",0,8,6,1.6417174030478,-0.635883345474206,0
"203",1,27,1,27,1,7,24,-1,1.170436073,0.780815972,0.285590278,0.402777778,0.473958333,0.378038194,-0.188368056,-0.188368056,1,3.127466806,1.954281296,2.30738397,2.623006864,0.378038194,0,0,0,0,0.778645833,0.782986111,0.407986111,0.163194444,0.3828125,0.422743056,0.631944444,0.315972222,1,57,32.8022,"broccoli","kiwi",0,8,2,1.76663607417299,0.071145512490038,1
"210",1,34,2,7,1,27,15,1,1.849139656,0.444010417,0.5234375,0.350260417,0.707465278,0.09375,-0.184027778,-0.184027778,1,3.392728869,2.834136651,1.961086764,2.465233106,0.09375,6,0,0,0,0.536458333,0.3515625,0.380208333,0.666666667,0.332465278,0.368055556,0.793402778,0.621527778,1,57,32.8022,"maltesers","galak",1,6,2,-0.444762126419177,0.0460735660250355,0
"211",1,35,2,8,1,20,22,-1,1.471377384,0.271701389,0.515625,0.439670139,0.647135417,-0.16796875,-0.131510417,-0.131510417,2,1.426346466,2.846805365,2.622142581,2.123720393,-0.16796875,1,0,0,0,0.332465278,0.2109375,0.666666667,0.364583333,0.381076389,0.498263889,0.575520833,0.71875,1,57,32.8022,"cornflakes","bueno",0,2,2,0.1325647329586,-0.257296970027082,1
"212",1,36,2,9,1,5,24,-1,0.944353343,0.112847222,0.391059028,0.402777778,0.473958333,-0.289930556,-0.082899306,-0.082899306,3,1.685426136,3.523201254,2.30738397,2.623006864,-0.289930556,0,0,0,0,0.108506944,0.1171875,0.270833333,0.511284722,0.3828125,0.422743056,0.631944444,0.315972222,1,57,32.8022,"torino","kiwi",0,1,3,1.08127144685531,-0.538102755416012,1
"213",1,37,2,10,1,3,22,-1,1.579021848,0.251736111,0.521701389,0.439670139,0.647135417,-0.187934028,-0.125434028,-0.125434028,2,3.178366375,2.167275187,2.622142581,2.123720393,-0.187934028,1,0,0,0,0.335069444,0.168402778,0.65625,0.387152778,0.381076389,0.498263889,0.575520833,0.71875,1,57,32.8022,"banana","bueno",0,2,3,0.287869036040291,-0.29239769392277,1
"214",1,38,2,11,1,20,17,1,1.587359758,0.271701389,0.515625,0.421440972,0.373263889,-0.149739583,0.142361111,0.142361111,7,1.426346466,2.846805365,3.16116035,2.059307595,-0.149739583,2,0,0,0,0.332465278,0.2109375,0.666666667,0.364583333,0.399305556,0.443576389,0.324652778,0.421875,1,57,32.8022,"cornflakes","caramel",1,2,7,-0.00923484913060275,-0.194617109641151,1
"215",1,39,2,12,1,31,10,-1,1.577650543,0.274739583,0.135416667,0.380208333,0.207465278,-0.10546875,-0.072048611,-0.072048611,3,1.934162422,2.478933215,2.272813912,2.416859259,-0.10546875,2,0,0,0,0.1796875,0.369791667,0.098090278,0.172743056,0.3515625,0.408854167,0.212673611,0.202256944,1,57,32.8022,"melon","lemon",0,3,3,-0.353605253885844,-0.600782621578518,1
"216",1,40,2,13,1,12,4,-1,2.345843375,0.137152778,0.727430556,0.37109375,0.584201389,-0.233940972,0.143229167,0.143229167,7,1.840297568,4.213354851,3.283182611,2.051432333,-0.233940972,0,0,0,0,0.127604167,0.146701389,0.707465278,0.747395833,0.400173611,0.342013889,0.449652778,0.71875,1,57,32.8022,"croissant","benandjerrys",0,1,7,0.64574416178802,-0.189602718037521,0
"223",1,47,2,20,1,13,7,1,2.52239329,0.876736111,0.222222222,0.780815972,0.285590278,0.095920139,-0.063368056,-0.063368056,3,2.537386909,2.025059811,3.127466806,1.954281296,0.095920139,6,0,0,0,0.844618056,0.908854167,0.142361111,0.302083333,0.778645833,0.782986111,0.407986111,0.163194444,1,57,32.8022,"darvida","broccoli",1,6,3,-0.427881223233888,-0.650926508731947,0
"224",1,48,2,21,1,9,5,-1,1.531731591,0.303385417,0.299479167,0.112847222,0.391059028,0.190538194,-0.091579861,-0.091579861,3,4.129151853,1.606676501,1.685426136,3.523201254,0.190538194,8,0,0,0,0.428819444,0.177951389,0.223958333,0.375,0.108506944,0.1171875,0.270833333,0.511284722,1,57,32.8022,"chocovo","torino",0,8,3,0.308126113639663,-0.487958868262583,1
"225",1,49,2,22,1,6,22,-1,1.991983227,0.391493056,0.517361111,0.439670139,0.647135417,-0.048177083,-0.129774306,-0.129774306,2,2.718148303,2.821370657,2.622142581,2.123720393,-0.048177083,4,0,0,0,0.400173611,0.3828125,0.499131944,0.535590278,0.381076389,0.498263889,0.575520833,0.71875,1,57,32.8022,"bounty","bueno",0,4,2,-0.799261077752824,-0.267325747457767,1
"226",1,50,2,23,1,2,19,-1,2.038507761,0.391927083,0.421875,0.318142361,0.559461806,0.073784722,-0.137586806,-0.137586806,2,2.372858598,1.805807012,2.588982228,2.695134356,0.073784722,6,0,0,0,0.471354167,0.3125,0.588541667,0.255208333,0.359375,0.276909722,0.590277778,0.528645833,1,57,32.8022,"balisto","cottagecheese",0,6,2,-0.600066429500868,-0.222196246131393,1
"227",1,51,2,24,1,19,20,1,2.678964703,0.318142361,0.559461806,0.271701389,0.515625,0.046440972,0.043836806,0.043836806,5,2.588982228,2.695134356,1.426346466,2.846805365,0.046440972,5,0,0,0,0.359375,0.276909722,0.590277778,0.528645833,0.332465278,0.2109375,0.666666667,0.364583333,1,57,32.8022,"cottagecheese","cornflakes",1,5,5,-0.812765798745312,-0.763750262047882,1
"228",1,52,2,25,1,13,9,1,1.867333271,0.876736111,0.222222222,0.303385417,0.299479167,0.573350694,-0.077256944,-0.077256944,3,2.537386909,2.025059811,4.129151853,1.606676501,0.573350694,0,0,0,0,0.844618056,0.908854167,0.142361111,0.302083333,0.428819444,0.177951389,0.223958333,0.375,1,57,32.8022,"darvida","chocovo",1,8,3,3.28591728306188,-0.570696289286461,0
"229",1,53,2,26,1,22,12,1,2.029257638,0.439670139,0.647135417,0.137152778,0.727430556,0.302517361,-0.080295139,-0.080295139,3,2.622142581,2.123720393,1.840297568,4.213354851,0.302517361,0,0,0,0,0.381076389,0.498263889,0.575520833,0.71875,0.127604167,0.146701389,0.707465278,0.747395833,1,57,32.8022,"bueno","croissant",1,8,3,1.17918067599553,-0.553145924450328,0
"234",1,58,3,1,1,3,30,-1,3.109736266,0.251736111,0.521701389,0.203993056,0.674479167,0.047743056,-0.152777778,-0.152777778,1,3.178366375,2.167275187,3.23841708,1.619346922,0.047743056,5,0,0,0,0.335069444,0.168402778,0.65625,0.387152778,0.300347222,0.107638889,0.6015625,0.747395833,1,57,32.8022,"banana","mars",0,5,2,-0.802637252166907,-0.134444439280461,1
"235",1,59,3,2,1,3,15,-1,1.500347733,0.251736111,0.521701389,0.350260417,0.707465278,-0.098524306,-0.185763889,-0.185763889,1,3.178366375,2.167275187,1.961086764,2.465233106,-0.098524306,3,0,0,0,0.335069444,0.168402778,0.65625,0.387152778,0.332465278,0.368055556,0.793402778,0.621527778,1,57,32.8022,"banana","galak",0,3,2,-0.407624137855796,0.0561023434557212,1
"236",1,60,3,3,1,26,6,1,1.698157286,0.367621528,0.696614583,0.391493056,0.517361111,-0.023871528,0.179253472,0.179253472,8,2.492345324,2.211645626,2.718148303,2.821370657,-0.023871528,4,0,0,0,0.603298611,0.131944444,0.753472222,0.639756944,0.400173611,0.3828125,0.499131944,0.535590278,1,57,32.8022,"magnum","bounty",1,4,7,-0.988327179426375,0.0184944237582175,1
"237",1,61,3,4,1,25,4,-1,2.021187105,0.380208333,0.773003472,0.37109375,0.584201389,0.009114583,0.188802083,0.188802083,8,1.928882712,2.208760509,3.283182611,2.051432333,0.009114583,5,0,0,0,0.348958333,0.411458333,0.747395833,0.798611111,0.400173611,0.342013889,0.449652778,0.71875,1,57,32.8022,"lindt","benandjerrys",0,5,7,-1.1031173195306,0.0736527025152773,0
"238",1,62,3,5,1,13,32,1,1.278897176,0.876736111,0.222222222,0.441840278,0.042100694,0.434895833,0.180121528,0.180121528,8,2.537386909,2.025059811,2.076566526,2.22030126,0.434895833,0,0,0,0,0.844618056,0.908854167,0.142361111,0.302083333,0.481770833,0.401909722,0.0546875,0.029513889,1,57,32.8022,"darvida","meringues",1,8,7,2.20891571584717,0.0235088153618485,1
"239",1,63,3,6,1,16,12,-1,1.985638416,0.571614583,0.682725694,0.137152778,0.727430556,0.434461806,-0.044704861,-0.044704861,4,3.092844979,2.346799961,1.840297568,4.213354851,0.434461806,0,0,0,0,0.518229167,0.625,0.605902778,0.759548611,0.127604167,0.146701389,0.707465278,0.747395833,1,57,32.8022,"applegreen","croissant",0,8,4,2.20553954143309,-0.758735876220827,1
"247",1,71,3,14,1,21,16,1,1.675492209,0.268229167,0.727864583,0.571614583,0.682725694,-0.303385417,0.045138889,0.045138889,5,1.969753492,1.729109215,3.092844979,2.346799961,-0.303385417,0,0,0,0,0.383680556,0.152777778,0.616319444,0.839409722,0.518229167,0.625,0.605902778,0.759548611,1,57,32.8022,"frosties","applegreen",1,1,5,1.18593304038114,-0.756228680419012,1
"248",1,72,3,15,1,25,12,1,1.737639552,0.380208333,0.773003472,0.137152778,0.727430556,0.243055556,0.045572917,0.045572917,5,1.928882712,2.208760509,1.840297568,4.213354851,0.243055556,0,0,0,0,0.348958333,0.411458333,0.747395833,0.798611111,0.127604167,0.146701389,0.707465278,0.747395833,1,57,32.8022,"lindt","croissant",1,8,5,0.716643956721981,-0.753721484617196,1
"249",1,73,3,16,1,13,31,1,2.01484457,0.876736111,0.222222222,0.274739583,0.135416667,0.601996528,0.086805556,0.086805556,6,2.537386909,2.025059811,1.934162422,2.478933215,0.601996528,0,0,0,0,0.844618056,0.908854167,0.142361111,0.302083333,0.1796875,0.369791667,0.098090278,0.172743056,1,57,32.8022,"darvida","melon",1,8,6,3.50874519888473,-0.515538004752825,1
"250",1,74,3,17,1,27,5,1,1.685825211,0.444010417,0.5234375,0.112847222,0.391059028,0.331163194,0.132378472,0.132378472,7,3.392728869,2.834136651,1.685426136,3.523201254,0.331163194,0,0,0,0,0.536458333,0.3515625,0.380208333,0.666666667,0.108506944,0.1171875,0.270833333,0.511284722,1,57,32.8022,"maltesers","torino",1,8,7,1.40200858403966,-0.252282584200027,1
"251",1,75,3,18,1,8,17,1,2.084352473,0.311197917,0.260416667,0.421440972,0.373263889,-0.110243056,-0.112847222,-0.112847222,2,1.948185517,1.887498795,3.16116035,2.059307595,-0.110243056,2,0,0,0,0.387152778,0.235243056,0.384548611,0.136284722,0.399305556,0.443576389,0.324652778,0.421875,1,57,32.8022,"carrot","caramel",1,3,3,-0.316467265322462,-0.365106337515962,0
"252",1,76,3,19,1,26,30,1,1.705730326,0.367621528,0.696614583,0.203993056,0.674479167,0.163628472,0.022135417,0.022135417,5,2.492345324,2.211645626,3.23841708,1.619346922,0.163628472,8,0,0,0,0.603298611,0.131944444,0.753472222,0.639756944,0.300347222,0.107638889,0.6015625,0.747395833,1,57,32.8022,"magnum","mars",1,7,5,0.0988029265880203,-0.889109988596318,1
"258",1,82,4,1,1,15,20,-1,2.717197691,0.350260417,0.707465278,0.271701389,0.515625,0.078559028,0.191840278,0.191840278,8,1.961086764,2.465233106,1.426346466,2.846805365,0.078559028,6,0,0,0,0.332465278,0.368055556,0.793402778,0.621527778,0.332465278,0.2109375,0.666666667,0.364583333,1,57,32.8022,"galak","cornflakes",0,6,7,-0.562928440937487,0.0912030673514095,0
"259",1,83,4,2,1,28,1,-1,2.103074301,0.514756944,0.15625,0.101996528,0.296875,0.412760417,-0.140625,-0.140625,2,2.594807074,2.233435894,2.417928911,2.797818826,0.412760417,0,0,0,0,0.626736111,0.402777778,0.180555556,0.131944444,0.09375,0.110243056,0.442708333,0.151041667,1,57,32.8022,"mango","pineapple",0,8,2,2.03673051735891,-0.204645887071837,1
"260",1,84,4,3,1,15,22,-1,2.181891491,0.350260417,0.707465278,0.439670139,0.647135417,-0.089409722,0.060329861,0.060329861,6,1.961086764,2.465233106,2.622142581,2.123720393,-0.089409722,3,0,0,0,0.332465278,0.368055556,0.793402778,0.621527778,0.381076389,0.498263889,0.575520833,0.71875,1,57,32.8022,"galak","bueno",0,3,5,-0.478523932789757,-0.668476873568079,0
"261",1,85,4,4,1,22,16,1,1.290569056,0.439670139,0.647135417,0.571614583,0.682725694,-0.131944444,-0.035590278,-0.035590278,4,2.622142581,2.123720393,3.092844979,2.346799961,-0.131944444,2,0,0,0,0.381076389,0.498263889,0.575520833,0.71875,0.518229167,0.625,0.605902778,0.759548611,1,57,32.8022,"bueno","applegreen",1,2,4,-0.147658249027004,-0.811386959176071,0
"262",1,86,4,5,1,5,13,-1,1.05585999,0.112847222,0.391059028,0.876736111,0.222222222,-0.763888889,0.168836806,0.168836806,8,1.685426136,3.523201254,2.537386909,2.025059811,-0.763888889,0,0,0,0,0.108506944,0.1171875,0.270833333,0.511284722,0.844618056,0.908854167,0.142361111,0.302083333,1,57,32.8022,"torino","darvida",0,1,7,4.76806051116611,-0.0416782408258971,0
"263",1,87,4,6,1,27,30,-1,1.844709439,0.444010417,0.5234375,0.203993056,0.674479167,0.240017361,-0.151041667,-0.151041667,1,3.392728869,2.834136651,3.23841708,1.619346922,0.240017361,0,0,0,0,0.536458333,0.3515625,0.380208333,0.666666667,0.300347222,0.107638889,0.6015625,0.747395833,1,57,32.8022,"maltesers","mars",0,8,2,0.693010689151088,-0.144473216711147,1
"264",1,88,4,7,1,14,18,-1,1.741077059,0.101128472,0.663628472,0.523871528,0.641493056,-0.422743056,0.022135417,0.022135417,5,2.641409119,2.002170309,1.611139714,2.604006708,-0.422743056,0,0,0,0,0.094618056,0.107638889,0.750868056,0.576388889,0.543402778,0.504340278,0.598958333,0.684027778,1,57,32.8022,"duplo","haribo",0,1,5,2.11438266889976,-0.889109988596318,0
"272",1,96,4,15,1,2,7,1,2.893280833,0.391927083,0.421875,0.780815972,0.285590278,-0.388888889,0.136284722,0.136284722,7,2.372858598,1.805807012,3.127466806,1.954281296,-0.388888889,0,0,0,0,0.471354167,0.3125,0.588541667,0.255208333,0.778645833,0.782986111,0.407986111,0.163194444,1,57,32.8022,"balisto","broccoli",1,1,7,1.85104059009944,-0.22971783353684,1
"273",1,97,4,16,1,18,20,1,1.120430512,0.523871528,0.641493056,0.271701389,0.515625,0.252170139,0.125868056,0.125868056,7,1.611139714,2.604006708,1.426346466,2.846805365,0.252170139,0,0,0,0,0.543402778,0.504340278,0.598958333,0.684027778,0.332465278,0.2109375,0.666666667,0.364583333,1,57,32.8022,"haribo","cornflakes",1,8,6,0.787543743877223,-0.289890498120954,1
"274",1,98,4,17,1,24,27,-1,1.278983931,0.402777778,0.473958333,0.444010417,0.5234375,-0.041232639,-0.049479167,-0.049479167,4,2.30738397,2.623006864,3.392728869,2.834136651,-0.041232639,4,0,0,0,0.3828125,0.422743056,0.631944444,0.315972222,0.536458333,0.3515625,0.380208333,0.666666667,1,57,32.8022,"kiwi","maltesers",0,4,4,-0.853279961722776,-0.731156733954009,1
"275",1,99,4,18,1,6,15,1,1.280432605,0.391493056,0.517361111,0.350260417,0.707465278,0.041232639,-0.190104167,-0.190104167,1,2.718148303,2.821370657,1.961086764,2.465233106,0.041232639,5,0,0,0,0.400173611,0.3828125,0.499131944,0.535590278,0.332465278,0.368055556,0.793402778,0.621527778,1,57,32.8022,"bounty","galak",1,5,2,-0.853279961722776,0.0811742899207237,0
"276",1,100,4,19,1,7,11,-1,1.445974533,0.780815972,0.285590278,0.172309028,0.249131944,0.608506944,0.036458333,0.036458333,5,3.127466806,1.954281296,2.271800011,2.004471319,0.608506944,0,0,0,0,0.778645833,0.782986111,0.407986111,0.163194444,0.209201389,0.135416667,0.234375,0.263888889,1,57,32.8022,"broccoli","corny",0,8,5,3.55938790066188,-0.806372573349016,0
"284",1,108,4,27,1,6,30,1,1.62339826,0.391493056,0.517361111,0.203993056,0.674479167,0.1875,-0.157118056,-0.157118056,1,2.718148303,2.821370657,3.23841708,1.619346922,0.1875,8,0,0,0,0.400173611,0.3828125,0.499131944,0.535590278,0.300347222,0.107638889,0.6015625,0.747395833,1,57,32.8022,"bounty","mars",1,7,2,0.284492853847489,-0.109372492815458,0
"285",1,109,4,28,1,26,25,1,1.387003577,0.367621528,0.696614583,0.380208333,0.773003472,-0.012586806,-0.076388889,-0.076388889,3,2.492345324,2.211645626,1.928882712,2.208760509,-0.012586806,4,0,0,0,0.603298611,0.131944444,0.753472222,0.639756944,0.348958333,0.411458333,0.747395833,0.798611111,1,57,32.8022,"magnum","lindt",1,4,3,-1.07610786976691,-0.575710675113515,0
"286",1,110,4,29,1,23,14,1,1.22078894,0.848524306,0.777777778,0.101128472,0.663628472,0.747395833,0.114149306,0.114149306,7,3.282252621,2.522195033,2.641409119,2.002170309,0.747395833,0,0,0,0,0.817708333,0.879340278,0.730034722,0.825520833,0.094618056,0.107638889,0.750868056,0.576388889,1,57,32.8022,"kitkat","duplo",1,8,6,4.63976565006939,-0.357584750110515,1
"287",1,111,4,30,1,4,2,-1,1.848005577,0.37109375,0.584201389,0.391927083,0.421875,-0.020833333,0.162326389,0.162326389,8,3.283182611,2.051432333,2.372858598,1.805807012,-0.020833333,4,0,0,0,0.400173611,0.342013889,0.449652778,0.71875,0.471354167,0.3125,0.588541667,0.255208333,1,57,32.8022,"benandjerrys","balisto",0,4,7,-1.01196044699727,-0.079286160523401,0
"288",1,112,4,31,1,17,24,-1,2.068013718,0.421440972,0.373263889,0.402777778,0.473958333,0.018663194,-0.100694444,-0.100694444,2,3.16116035,2.059307595,2.30738397,2.623006864,0.018663194,5,0,0,0,0.399305556,0.443576389,0.324652778,0.421875,0.3828125,0.422743056,0.631944444,0.315972222,1,57,32.8022,"caramel","kiwi",0,5,3,-1.02884135018256,-0.435307785307338,1
"293",1,117,5,5,1,23,16,1,1.105672982,0.848524306,0.777777778,0.571614583,0.682725694,0.276909722,0.095052083,0.095052083,6,3.282252621,2.522195033,3.092844979,2.346799961,0.276909722,0,0,0,0,0.817708333,0.879340278,0.730034722,0.825520833,0.518229167,0.625,0.605902778,0.759548611,1,57,32.8022,"kitkat","applegreen",1,8,6,0.979986027743575,-0.467901313401211,1
"294",1,118,5,6,1,28,7,1,2.585450285,0.514756944,0.15625,0.780815972,0.285590278,-0.266059028,-0.129340278,-0.129340278,2,2.594807074,2.233435894,3.127466806,1.954281296,-0.266059028,0,0,0,0,0.626736111,0.402777778,0.180555556,0.131944444,0.778645833,0.782986111,0.407986111,0.163194444,1,57,32.8022,"mango","broccoli",1,1,2,0.895581519595846,-0.269832943259583,0
"295",1,119,5,7,1,26,16,1,1.691792848,0.367621528,0.696614583,0.571614583,0.682725694,-0.203993056,0.013888889,0.013888889,5,2.492345324,2.211645626,3.092844979,2.346799961,-0.203993056,0,0,0,0,0.603298611,0.131944444,0.753472222,0.639756944,0.518229167,0.625,0.605902778,0.759548611,1,57,32.8022,"magnum","applegreen",1,1,5,0.412787714944204,-0.936746685724508,1
"296",1,120,5,8,1,2,6,1,1.573400663,0.391927083,0.421875,0.391493056,0.517361111,0.000434028,-0.095486111,-0.095486111,3,2.372858598,1.805807012,2.718148303,2.821370657,0.000434028,5,0,0,0,0.471354167,0.3125,0.588541667,0.255208333,0.400173611,0.3828125,0.499131944,0.535590278,1,57,32.8022,"balisto","bounty",1,5,3,-1.17064092449304,-0.465394117599396,0
"297",1,121,5,9,1,20,6,-1,1.134075865,0.271701389,0.515625,0.391493056,0.517361111,-0.119791667,-0.001736111,-0.001736111,4,1.426346466,2.846805365,2.718148303,2.821370657,-0.119791667,2,0,0,0,0.332465278,0.2109375,0.666666667,0.364583333,0.400173611,0.3828125,0.499131944,0.535590278,1,57,32.8022,"cornflakes","bounty",0,3,4,-0.242191295974419,-1.00694813351588,1
"305",1,129,5,17,1,28,8,1,1.617256258,0.514756944,0.15625,0.311197917,0.260416667,0.203559028,-0.104166667,-0.104166667,2,2.594807074,2.233435894,1.948185517,1.887498795,0.203559028,0,0,0,0,0.626736111,0.402777778,0.180555556,0.131944444,0.387152778,0.235243056,0.384548611,0.136284722,1,57,32.8022,"mango","carrot",1,8,3,0.409411532751402,-0.415250224669391,0
"306",1,130,5,18,1,23,15,1,1.339729818,0.848524306,0.777777778,0.350260417,0.707465278,0.498263889,0.0703125,0.0703125,6,3.282252621,2.522195033,1.961086764,2.465233106,0.498263889,0,0,0,0,0.817708333,0.879340278,0.730034722,0.825520833,0.332465278,0.368055556,0.793402778,0.621527778,1,57,32.8022,"kitkat","galak",1,8,6,2.70183806707722,-0.610811399009204,1
"307",1,131,5,19,1,14,27,-1,1.473983461,0.101128472,0.663628472,0.444010417,0.5234375,-0.342881944,0.140190972,0.140190972,7,2.641409119,2.002170309,3.392728869,2.834136651,-0.342881944,0,0,0,0,0.094618056,0.107638889,0.750868056,0.576388889,0.536458333,0.3515625,0.380208333,0.666666667,1,57,32.8022,"duplo","maltesers",0,1,7,1.493165456573,-0.207153082873653,0
"308",1,132,5,20,1,5,4,-1,0.968621547,0.112847222,0.391059028,0.37109375,0.584201389,-0.258246528,-0.193142361,-0.193142361,1,1.685426136,3.523201254,3.283182611,2.051432333,-0.258246528,0,0,0,0,0.108506944,0.1171875,0.270833333,0.511284722,0.400173611,0.342013889,0.449652778,0.71875,1,57,32.8022,"torino","benandjerrys",0,1,2,0.83481027124029,0.0987246489802799,1
"315",1,139,5,27,1,1,11,-1,1.485982452,0.101996528,0.296875,0.172309028,0.249131944,-0.0703125,0.047743056,0.047743056,5,2.417928911,2.797818826,2.271800011,2.004471319,-0.0703125,3,0,0,0,0.09375,0.110243056,0.442708333,0.151041667,0.209201389,0.135416667,0.234375,0.263888889,1,57,32.8022,"pineapple","corny",0,3,5,-0.627075871485844,-0.741185511384695,0
"316",1,140,5,28,1,21,19,1,0.897753432,0.268229167,0.727864583,0.318142361,0.559461806,-0.049913194,0.168402778,0.168402778,8,1.969753492,1.729109215,2.588982228,2.695134356,-0.049913194,4,0,0,0,0.383680556,0.152777778,0.616319444,0.839409722,0.359375,0.276909722,0.590277778,0.528645833,1,57,32.8022,"frosties","cottagecheese",1,4,7,-0.785756356760337,-0.0441854366277126,1
"317",1,141,5,29,1,31,28,-1,1.189791926,0.274739583,0.135416667,0.514756944,0.15625,-0.240017361,-0.020833333,-0.020833333,4,1.934162422,2.478933215,2.594807074,2.233435894,-0.240017361,0,0,0,0,0.1796875,0.369791667,0.098090278,0.172743056,0.626736111,0.402777778,0.180555556,0.131944444,1,57,32.8022,"melon","mango",0,1,4,0.693010689151088,-0.896631576001765,1
"318",1,142,5,30,1,24,6,1,1.948667507,0.402777778,0.473958333,0.391493056,0.517361111,0.011284722,-0.043402778,-0.043402778,4,2.30738397,2.623006864,2.718148303,2.821370657,0.011284722,5,0,0,0,0.3828125,0.422743056,0.631944444,0.315972222,0.400173611,0.3828125,0.499131944,0.535590278,1,57,32.8022,"kiwi","bounty",1,5,4,-1.08623641634531,-0.766257457849697,0
"319",1,143,5,31,1,30,20,1,2.545983379,0.203993056,0.674479167,0.271701389,0.515625,-0.067708333,0.158854167,0.158854167,8,3.23841708,1.619346922,1.426346466,2.846805365,-0.067708333,3,0,0,0,0.300347222,0.107638889,0.6015625,0.747395833,0.332465278,0.2109375,0.666666667,0.364583333,1,57,32.8022,"mars","cornflakes",1,3,7,-0.647332956863936,-0.0993437153847725,1
"320",1,144,5,32,1,2,1,1,1.524728861,0.391927083,0.421875,0.101996528,0.296875,0.289930556,0.125,0.125,7,2.372858598,1.805807012,2.417928911,2.797818826,0.289930556,0,0,0,0,0.471354167,0.3125,0.588541667,0.255208333,0.09375,0.110243056,0.442708333,0.151041667,1,57,32.8022,"balisto","pineapple",1,8,6,1.08127144685531,-0.294904889724585,1
"321",1,145,5,33,1,21,26,1,2.367775439,0.268229167,0.727864583,0.367621528,0.696614583,-0.099392361,0.03125,0.03125,5,1.969753492,1.729109215,2.492345324,2.211645626,-0.099392361,3,0,0,0,0.383680556,0.152777778,0.616319444,0.839409722,0.603298611,0.131944444,0.753472222,0.639756944,1,57,32.8022,"frosties","magnum",1,3,5,-0.400871781248912,-0.836458905641074,1
"326",1,150,6,5,1,8,1,-1,1.738324493,0.311197917,0.260416667,0.101996528,0.296875,0.209201389,-0.036458333,-0.036458333,4,1.948185517,1.887498795,2.417928911,2.797818826,0.209201389,0,0,0,0,0.387152778,0.235243056,0.384548611,0.136284722,0.09375,0.110243056,0.442708333,0.151041667,1,57,32.8022,"carrot","pineapple",0,8,4,0.453301877921667,-0.806372573349016,1
"327",1,151,6,6,1,15,4,1,2.574106085,0.350260417,0.707465278,0.37109375,0.584201389,-0.020833333,0.123263889,0.123263889,7,1.961086764,2.465233106,3.283182611,2.051432333,-0.020833333,4,0,0,0,0.332465278,0.368055556,0.793402778,0.621527778,0.400173611,0.342013889,0.449652778,0.71875,1,57,32.8022,"galak","benandjerrys",1,4,6,-1.01196044699727,-0.304933667155271,1
"328",1,152,6,7,1,24,1,-1,1.174414593,0.402777778,0.473958333,0.101996528,0.296875,0.30078125,0.177083333,0.177083333,8,2.30738397,2.623006864,2.417928911,2.797818826,0.30078125,0,0,0,0,0.3828125,0.422743056,0.631944444,0.315972222,0.09375,0.110243056,0.442708333,0.151041667,1,57,32.8022,"kiwi","pineapple",0,8,7,1.16567595500304,0.00595845052571627,0
"329",1,153,6,8,1,16,4,1,1.898848826,0.571614583,0.682725694,0.37109375,0.584201389,0.200520833,0.098524306,0.098524306,6,3.092844979,2.346799961,3.283182611,2.051432333,0.200520833,0,0,0,0,0.518229167,0.625,0.605902778,0.759548611,0.400173611,0.342013889,0.449652778,0.71875,1,57,32.8022,"applegreen","benandjerrys",1,8,6,0.385778265180508,-0.447843752763263,1
"336",1,160,6,15,1,5,20,-1,1.035844795,0.112847222,0.391059028,0.271701389,0.515625,-0.158854167,-0.124565972,-0.124565972,2,1.685426136,3.523201254,1.426346466,2.846805365,-0.158854167,1,0,0,0,0.108506944,0.1171875,0.270833333,0.511284722,0.332465278,0.2109375,0.666666667,0.364583333,1,57,32.8022,"torino","cornflakes",0,2,3,0.0616649458033584,-0.297412085526401,1
"337",1,161,6,16,1,9,29,1,1.594212017,0.303385417,0.299479167,0.162760417,0.134548611,0.140625,0.164930556,0.164930556,8,4.129151853,1.606676501,3.194139797,2.99551133,0.140625,7,0,0,0,0.428819444,0.177951389,0.223958333,0.375,0.175347222,0.150173611,0.122395833,0.146701389,1,57,32.8022,"chocovo","maoam",1,7,7,-0.0801346362858443,-0.0642429914890841,1
"338",1,162,6,17,1,28,29,-1,1.344068729,0.514756944,0.15625,0.162760417,0.134548611,0.351996528,0.021701389,0.021701389,5,2.594807074,2.233435894,3.194139797,2.99551133,0.351996528,0,0,0,0,0.626736111,0.402777778,0.180555556,0.131944444,0.175347222,0.150173611,0.122395833,0.146701389,1,57,32.8022,"mango","maoam",0,8,5,1.56406525150696,-0.891617184398134,0
"339",1,163,6,18,1,18,27,-1,2.182069268,0.523871528,0.641493056,0.444010417,0.5234375,0.079861111,0.118055556,0.118055556,7,1.611139714,2.604006708,3.392728869,2.834136651,0.079861111,6,0,0,0,0.543402778,0.504340278,0.598958333,0.684027778,0.536458333,0.3515625,0.380208333,0.666666667,1,57,32.8022,"haribo","maltesers",0,6,6,-0.552799902137801,-0.335019999447328,0
"340",1,164,6,19,1,22,25,-1,1.307982441,0.439670139,0.647135417,0.380208333,0.773003472,0.059461806,-0.125868056,-0.125868056,2,2.622142581,2.123720393,1.928882712,2.208760509,0.059461806,6,0,0,0,0.381076389,0.498263889,0.575520833,0.71875,0.348958333,0.411458333,0.747395833,0.798611111,1,57,32.8022,"bueno","lindt",0,6,3,-0.711480379633573,-0.289890498120954,1
"341",1,165,6,20,1,27,16,1,2.205331677,0.444010417,0.5234375,0.571614583,0.682725694,-0.127604167,-0.159288194,-0.159288194,1,3.392728869,2.834136651,3.092844979,2.346799961,-0.127604167,2,0,0,0,0.536458333,0.3515625,0.380208333,0.666666667,0.518229167,0.625,0.605902778,0.759548611,1,57,32.8022,"maltesers","applegreen",1,2,2,-0.181420047618864,-0.0968365253595331,0
"347",1,171,6,26,1,1,5,-1,1.362370717,0.101996528,0.296875,0.112847222,0.391059028,-0.010850694,-0.094184028,-0.094184028,3,2.417928911,2.797818826,1.685426136,3.523201254,-0.010850694,4,0,0,0,0.09375,0.110243056,0.442708333,0.151041667,0.108506944,0.1171875,0.270833333,0.511284722,1,57,32.8022,"pineapple","torino",0,4,3,-1.08961259853811,-0.472915699228266,1
"348",1,172,6,27,1,17,19,-1,1.328725244,0.421440972,0.373263889,0.318142361,0.559461806,0.103298611,-0.186197917,-0.186197917,1,3.16116035,2.059307595,2.588982228,2.695134356,0.103298611,7,0,0,0,0.399305556,0.443576389,0.324652778,0.421875,0.359375,0.276909722,0.590277778,0.528645833,1,57,32.8022,"caramel","cottagecheese",0,6,2,-0.370486157071134,0.0586095392575367,1
"349",1,173,6,28,1,29,1,-1,1.46101992,0.162760417,0.134548611,0.101996528,0.296875,0.060763889,-0.162326389,-0.162326389,1,3.194139797,2.99551133,2.417928911,2.797818826,0.060763889,6,0,0,0,0.175347222,0.150173611,0.122395833,0.146701389,0.09375,0.110243056,0.442708333,0.151041667,1,57,32.8022,"maoam","pineapple",0,6,2,-0.701351840833887,-0.079286160523401,1
"350",1,174,6,29,1,18,26,-1,1.16718317,0.523871528,0.641493056,0.367621528,0.696614583,0.15625,-0.055121528,-0.055121528,3,1.611139714,2.604006708,2.492345324,2.211645626,0.15625,8,0,0,0,0.543402778,0.504340278,0.598958333,0.684027778,0.603298611,0.131944444,0.753472222,0.639756944,1,57,32.8022,"haribo","magnum",0,7,4,0.0414078604252667,-0.698563205860136,1
"351",1,175,6,30,1,17,9,-1,1.386142281,0.421440972,0.373263889,0.303385417,0.299479167,0.118055556,0.073784722,0.073784722,6,3.16116035,2.059307595,4.129151853,1.606676501,0.118055556,7,0,0,0,0.399305556,0.443576389,0.324652778,0.421875,0.428819444,0.177951389,0.223958333,0.375,1,57,32.8022,"caramel","chocovo",0,6,6,-0.255696016966907,-0.590753844147832,0
"352",1,176,6,31,1,18,12,1,1.562886186,0.523871528,0.641493056,0.137152778,0.727430556,0.38671875,-0.0859375,-0.0859375,3,1.611139714,2.604006708,1.840297568,4.213354851,0.38671875,0,0,0,1,0.543402778,0.504340278,0.598958333,0.684027778,0.127604167,0.146701389,0.707465278,0.747395833,1,57,32.8022,"haribo","croissant",1,8,3,1.83415968691415,-0.520552396356456,0
"705",3,1,1,1,1,26,9,1,1.278828625,0.450954861,0.792534722,0.327690972,0.626736111,0.123263889,0.165798611,0.165798611,8,1.64832168,1.331610929,1.273233467,1.174296975,0.123263889,7,1,1,0,0.629340278,0.272569444,0.8046875,0.780381944,0.417534722,0.237847222,0.625868056,0.627604167,2,55.5,45.89566667,"zucchini","orange",1,7,7,-0.215181853989443,-0.0592286056620293,1
"706",3,2,1,2,1,31,24,-1,0.881990961,0.8203125,0.811631944,0.549045139,0.828559028,0.271267361,-0.016927083,-0.016927083,4,0.963788983,1.13323832,1.430967972,0.982180002,0.271267361,0,1,1,0,0.801215278,0.839409722,0.808159722,0.815104167,0.575520833,0.522569444,0.868923611,0.788194444,2,55.5,45.89566667,"muffins","twix",0,8,4,0.936095682573309,-0.919196326664952,1
"707",3,3,1,3,1,9,31,-1,0.875568782,0.327690972,0.626736111,0.8203125,0.811631944,-0.492621528,-0.184895833,-0.184895833,1,1.273233467,1.174296975,0.963788983,1.13323832,-0.492621528,0,1,1,0,0.417534722,0.237847222,0.625868056,0.627604167,0.801215278,0.839409722,0.808159722,0.815104167,2,55.5,45.89566667,"orange","muffins",0,1,2,2.65794772190696,0.0510879518520903,1
"708",3,4,1,4,1,13,6,-1,0.723846003,0.227864583,0.762152778,0.576822917,0.910590278,-0.348958333,-0.1484375,-0.1484375,2,0.84868995,1.107521727,1.331334165,1.589793036,-0.348958333,0,1,1,0,0.244791667,0.2109375,0.710069444,0.814236111,0.596354167,0.557291667,0.868055556,0.953125,2,55.5,45.89566667,"pear","mandm",0,1,2,1.54043198393606,-0.159516385745463,1
"709",3,5,1,5,1,4,26,1,0.930040115,0.174479167,0.754340278,0.450954861,0.792534722,-0.276475694,-0.038194444,-0.038194444,4,2.406572337,1.390782986,1.64832168,1.331610929,-0.276475694,0,1,1,0,0.118923611,0.230034722,0.743923611,0.764756944,0.629340278,0.272569444,0.8046875,0.780381944,2,55.5,45.89566667,"mikado","zucchini",1,1,4,0.976609845550773,-0.796343795918331,0
"714",3,10,1,10,1,3,13,1,1.171978329,0.427083333,0.931423611,0.227864583,0.762152778,0.19921875,0.169270833,0.169270833,8,1.114718732,1.073509605,0.84868995,1.107521727,0.19921875,8,1,1,0,0.538194444,0.315972222,0.918402778,0.944444444,0.244791667,0.2109375,0.710069444,0.814236111,2,55.5,45.89566667,"petitbeurre","pear",1,8,7,0.375649726380822,-0.0391710508006578,1
"715",3,11,1,11,1,14,18,-1,1.316435267,0.46875,0.810763889,0.352430556,0.817274306,0.116319444,-0.006510417,-0.006510417,4,2.306205376,1.056757838,1.131769023,1.447134069,0.116319444,7,1,1,0,0.460069444,0.477430556,0.8359375,0.785590278,0.349826389,0.355034722,0.780381944,0.854166667,2,55.5,45.89566667,"applered","rasberries",0,6,4,-0.269200745738115,-0.979368991249066,1
"716",3,12,1,12,1,24,32,1,0.989286981,0.549045139,0.828559028,0.610677083,0.642795139,-0.061631944,0.185763889,0.185763889,8,1.430967972,0.982180002,1.980099152,1.083210856,-0.061631944,3,1,1,0,0.575520833,0.522569444,0.868923611,0.788194444,0.546006944,0.675347222,0.627604167,0.657986111,2,55.5,45.89566667,"twix","yogurt",1,3,7,-0.694599484227003,0.0561023434557212,1
"717",3,13,1,13,1,17,11,-1,0.817507194,0.266927083,0.76953125,0.270399306,0.952256944,-0.003472222,-0.182725694,-0.182725694,1,1.723273275,0.973989007,1.155222295,1.655647396,-0.003472222,4,1,1,0,0.245659722,0.288194444,0.682291667,0.856770833,0.263888889,0.276909722,0.936631944,0.967881944,2,55.5,45.89566667,"raisins","chocolatechipcookie",0,4,2,-1.14700766470087,0.038551978619589,1
"718",3,14,1,14,1,11,18,1,0.706436601,0.270399306,0.952256944,0.352430556,0.817274306,-0.08203125,0.134982639,0.134982639,7,1.155222295,1.655647396,1.131769023,1.447134069,-0.08203125,3,1,1,0,0.263888889,0.276909722,0.936631944,0.967881944,0.349826389,0.355034722,0.780381944,0.854166667,2,55.5,45.89566667,"chocolatechipcookie","rasberries",1,3,7,-0.535918998952511,-0.23723941516571,1
"719",3,15,1,15,1,11,13,1,0.691191534,0.270399306,0.952256944,0.227864583,0.762152778,0.042534722,0.190104167,0.190104167,8,1.155222295,1.655647396,0.84868995,1.107521727,0.042534722,5,1,1,0,0.263888889,0.276909722,0.936631944,0.967881944,0.244791667,0.2109375,0.710069444,0.814236111,2,55.5,45.89566667,"chocolatechipcookie","pear",1,5,7,-0.84315142292309,0.0811742899207237,1
"720",3,16,1,16,1,22,14,1,1.429352471,0.169704861,0.888888889,0.46875,0.810763889,-0.299045139,0.078125,0.078125,6,1.271907531,0.848471355,2.306205376,1.056757838,-0.299045139,0,1,1,0,0.170138889,0.169270833,0.84375,0.934027778,0.460069444,0.477430556,0.8359375,0.785590278,2,55.5,45.89566667,"toblerone","applered",1,1,6,1.15217123401056,-0.56568189768283,1
"728",3,24,1,24,1,20,6,-1,0.916156398,0.229166667,0.789496528,0.576822917,0.910590278,-0.34765625,-0.12109375,-0.12109375,2,0.955945579,1.231388181,1.331334165,1.589793036,-0.34765625,0,1,1,0,0.254340278,0.203993056,0.868923611,0.710069444,0.596354167,0.557291667,0.868055556,0.953125,2,55.5,45.89566667,"snickers","mandm",0,1,3,1.53030344513638,-0.317469640387772,1
"729",3,25,1,25,1,11,10,1,0.835726978,0.270399306,0.952256944,0.246527778,0.809461806,0.023871528,0.142795139,0.142795139,7,1.155222295,1.655647396,1.739187781,0.882503814,0.023871528,5,1,1,0,0.263888889,0.276909722,0.936631944,0.967881944,0.264756944,0.228298611,0.835069444,0.783854167,2,55.5,45.89566667,"chocolatechipcookie","oreo",1,5,7,-0.988327179426375,-0.192109913839336,1
"730",3,26,1,26,1,18,26,1,0.767269243,0.352430556,0.817274306,0.450954861,0.792534722,-0.098524306,0.024739583,0.024739583,5,1.131769023,1.447134069,1.64832168,1.331610929,-0.098524306,3,1,1,0,0.349826389,0.355034722,0.780381944,0.854166667,0.629340278,0.272569444,0.8046875,0.780381944,2,55.5,45.89566667,"rasberries","zucchini",1,3,5,-0.407624137855796,-0.874066825338577,1
"731",3,27,1,27,1,23,16,-1,0.721551961,0.168836806,0.723524306,0.275173611,0.81640625,-0.106336806,-0.092881944,-0.092881944,3,1.621991826,1.007422143,2.487967018,1.355765924,-0.106336806,2,1,1,0,0.181423611,0.15625,0.657118056,0.789930556,0.280381944,0.269965278,0.750868056,0.881944444,2,55.5,45.89566667,"tomatoes","plum",0,3,3,-0.34685288950024,-0.480437286633712,1
"732",3,28,1,28,1,13,18,-1,0.620925302,0.227864583,0.762152778,0.352430556,0.817274306,-0.124565972,-0.055121528,-0.055121528,3,0.84868995,1.107521727,1.131769023,1.447134069,-0.124565972,2,1,1,0,0.244791667,0.2109375,0.710069444,0.814236111,0.349826389,0.355034722,0.780381944,0.854166667,2,55.5,45.89566667,"pear","rasberries",0,2,4,-0.205053315189757,-0.698563205860136,1
"733",3,29,1,29,1,5,10,-1,0.978898513,0.377604167,0.830295139,0.246527778,0.809461806,0.131076389,0.020833333,0.020833333,5,0.956000477,0.983286775,1.739187781,0.882503814,0.131076389,7,1,1,0,0.309895833,0.4453125,0.870659722,0.789930556,0.264756944,0.228298611,0.835069444,0.783854167,2,55.5,45.89566667,"rizaulait","oreo",0,7,5,-0.154410605633888,-0.896631576001765,0
"734",3,30,1,30,1,20,13,1,1.424074042,0.229166667,0.789496528,0.227864583,0.762152778,0.001302083,0.02734375,0.02734375,5,0.955945579,1.231388181,0.84868995,1.107521727,0.001302083,5,1,1,0,0.254340278,0.203993056,0.868923611,0.710069444,0.244791667,0.2109375,0.710069444,0.814236111,2,55.5,45.89566667,"snickers","pear",1,5,5,-1.16388856788616,-0.859023656304261,1
"741",3,37,2,7,1,8,15,1,1.205898006,0.605902778,0.555555556,0.15234375,0.516493056,0.453559028,0.0390625,0.0390625,5,1.514504375,1.18126102,1.189855215,1.073523827,0.453559028,0,1,1,0,0.530381944,0.681423611,0.546006944,0.565104167,0.074652778,0.230034722,0.518229167,0.514756944,2,55.5,45.89566667,"lachgummi","pringles",1,8,5,2.35409148012918,-0.7913294043147,1
"742",3,38,2,8,1,23,14,1,0.875580728,0.168836806,0.723524306,0.46875,0.810763889,-0.299913194,-0.087239583,-0.087239583,3,1.621991826,1.007422143,2.306205376,1.056757838,-0.299913194,0,1,1,0,0.181423611,0.15625,0.657118056,0.789930556,0.460069444,0.477430556,0.8359375,0.785590278,2,55.5,45.89566667,"tomatoes","applered",1,1,3,1.15892359061744,-0.513030814727585,0
"743",3,39,2,9,1,5,23,-1,0.956475498,0.377604167,0.830295139,0.168836806,0.723524306,0.208767361,0.106770833,0.106770833,7,0.956000477,0.983286775,1.621991826,1.007422143,0.208767361,0,1,1,0,0.309895833,0.4453125,0.870659722,0.789930556,0.181423611,0.15625,0.657118056,0.789930556,2,55.5,45.89566667,"rizaulait","tomatoes",0,8,6,0.449925695728866,-0.40020706141165,0
"744",3,40,2,10,1,22,13,1,0.650315491,0.169704861,0.888888889,0.227864583,0.762152778,-0.058159722,0.126736111,0.126736111,7,1.271907531,0.848471355,0.84868995,1.107521727,-0.058159722,3,1,1,0,0.170138889,0.169270833,0.84375,0.934027778,0.244791667,0.2109375,0.710069444,0.814236111,2,55.5,45.89566667,"toblerone","pear",1,4,6,-0.721608926211979,-0.284876112293899,1
"745",3,41,2,11,1,24,18,-1,0.739688687,0.549045139,0.828559028,0.352430556,0.817274306,0.196614583,0.011284722,0.011284722,5,1.430967972,0.982180002,1.131769023,1.447134069,0.196614583,8,1,1,0,0.575520833,0.522569444,0.868923611,0.788194444,0.349826389,0.355034722,0.780381944,0.854166667,2,55.5,45.89566667,"twix","rasberries",0,8,5,0.35539264100273,-0.951789854758824,0
"753",3,49,2,19,1,22,20,1,0.993278585,0.169704861,0.888888889,0.229166667,0.789496528,-0.059461806,0.099392361,0.099392361,6,1.271907531,0.848471355,0.955945579,1.231388181,-0.059461806,3,1,1,0,0.170138889,0.169270833,0.84375,0.934027778,0.254340278,0.203993056,0.868923611,0.710069444,2,55.5,45.89566667,"toblerone","snickers",1,4,6,-0.711480379633573,-0.442829366936209,1
"754",3,50,2,20,1,32,5,-1,0.717133691,0.610677083,0.642795139,0.377604167,0.830295139,0.233072917,-0.1875,-0.1875,1,1.980099152,1.083210856,0.956000477,0.983286775,0.233072917,0,1,1,0,0.546006944,0.675347222,0.627604167,0.657986111,0.309895833,0.4453125,0.870659722,0.789930556,2,55.5,45.89566667,"yogurt","rizaulait",0,8,2,0.638991805181136,0.066131120886407,1
"755",3,51,2,21,1,23,20,-1,0.692186519,0.168836806,0.723524306,0.229166667,0.789496528,-0.060329861,-0.065972222,-0.065972222,3,1.621991826,1.007422143,0.955945579,1.231388181,-0.060329861,3,1,1,0,0.181423611,0.15625,0.657118056,0.789930556,0.254340278,0.203993056,0.868923611,0.710069444,2,55.5,45.89566667,"tomatoes","snickers",0,4,3,-0.704728023026689,-0.635883345474206,1
"756",3,52,2,22,1,32,20,-1,0.875984923,0.610677083,0.642795139,0.229166667,0.789496528,0.381510417,-0.146701389,-0.146701389,2,1.980099152,1.083210856,0.955945579,1.231388181,0.381510417,0,1,1,0,0.546006944,0.675347222,0.627604167,0.657986111,0.254340278,0.203993056,0.868923611,0.710069444,2,55.5,45.89566667,"yogurt","snickers",0,8,2,1.79364552393669,-0.169545163176149,1
"757",3,53,2,23,1,30,2,1,0.879147089,0.108506944,0.476128472,0.117621528,0.515190972,-0.009114583,-0.0390625,-0.0390625,4,0.989968083,0.856431239,0.814175643,1.131151069,-0.009114583,4,1,1,0,0.0859375,0.131076389,0.457465278,0.494791667,0.102430556,0.1328125,0.533854167,0.496527778,2,55.5,45.89566667,"radish","salad",1,4,4,-1.1031173195306,-0.7913294043147,0
"758",3,54,2,24,1,23,10,-1,0.603169163,0.168836806,0.723524306,0.246527778,0.809461806,-0.077690972,-0.0859375,-0.0859375,3,1.621991826,1.007422143,1.739187781,0.882503814,-0.077690972,3,1,1,0,0.181423611,0.15625,0.657118056,0.789930556,0.264756944,0.228298611,0.835069444,0.783854167,2,55.5,45.89566667,"tomatoes","oreo",0,3,3,-0.56968080532309,-0.520552396356456,1
"764",3,60,3,1,1,24,22,1,0.888002119,0.549045139,0.828559028,0.169704861,0.888888889,0.379340278,-0.060329861,-0.060329861,3,1.430967972,0.982180002,1.271907531,0.848471355,0.379340278,0,1,1,0,0.575520833,0.522569444,0.868923611,0.788194444,0.170138889,0.169270833,0.84375,0.934027778,2,55.5,45.89566667,"twix","toblerone",1,8,4,1.7767646207514,-0.668476873568079,0
"765",3,61,3,2,1,10,3,-1,0.610599696,0.246527778,0.809461806,0.427083333,0.931423611,-0.180555556,-0.121961806,-0.121961806,2,1.739187781,0.882503814,1.114718732,1.073509605,-0.180555556,1,1,1,0,0.264756944,0.228298611,0.835069444,0.783854167,0.538194444,0.315972222,0.918402778,0.944444444,2,55.5,45.89566667,"oreo","petitbeurre",0,2,3,0.230473969877537,-0.312455248784141,1
"766",3,62,3,3,1,22,23,1,0.804831511,0.169704861,0.888888889,0.168836806,0.723524306,0.000868056,0.165364583,0.165364583,8,1.271907531,0.848471355,1.621991826,1.007422143,0.000868056,5,1,1,0,0.170138889,0.169270833,0.84375,0.934027778,0.181423611,0.15625,0.657118056,0.789930556,2,55.5,45.89566667,"toblerone","tomatoes",1,5,7,-1.16726474230024,-0.0617358014638448,1
"767",3,63,3,4,1,12,21,1,1.902283773,0.544704861,0.177951389,0.273871528,0.100260417,0.270833333,0.077690972,0.077690972,6,1.356229426,1.123159611,1.93868935,1.040152985,0.270833333,0,1,1,0,0.565104167,0.524305556,0.172743056,0.183159722,0.252604167,0.295138889,0.149305556,0.051215278,2,55.5,45.89566667,"pizza","strawberries",1,8,6,0.932719500380508,-0.568189093484645,1
"775",3,71,3,12,1,22,16,1,1.012495915,0.169704861,0.888888889,0.275173611,0.81640625,-0.10546875,0.072482639,0.072482639,6,1.271907531,0.848471355,2.487967018,1.355765924,-0.10546875,2,1,1,0,0.170138889,0.169270833,0.84375,0.934027778,0.280381944,0.269965278,0.750868056,0.881944444,2,55.5,45.89566667,"toblerone","plum",1,3,6,-0.353605253885844,-0.598275425776702,1
"776",3,72,3,13,1,3,26,1,0.768721899,0.427083333,0.931423611,0.450954861,0.792534722,-0.023871528,0.138888889,0.138888889,7,1.114718732,1.073509605,1.64832168,1.331610929,-0.023871528,4,1,1,0,0.538194444,0.315972222,0.918402778,0.944444444,0.629340278,0.272569444,0.8046875,0.780381944,2,55.5,45.89566667,"petitbeurre","zucchini",1,4,7,-0.988327179426375,-0.214674664502523,1
"777",3,73,3,14,1,28,23,1,0.675650645,0.163628472,0.526475694,0.168836806,0.723524306,-0.005208333,-0.197048611,-0.197048611,1,1.381050446,0.882407529,1.621991826,1.007422143,-0.005208333,4,1,1,0,0.160590278,0.166666667,0.5,0.552951389,0.181423611,0.15625,0.657118056,0.789930556,2,55.5,45.89566667,"paprikachips","tomatoes",1,4,1,-1.13350294370838,0.121289399643467,0
"778",3,74,3,15,1,32,29,1,1.024302052,0.610677083,0.642795139,0.562065972,0.487413194,0.048611111,0.155381944,0.155381944,8,1.980099152,1.083210856,1.231151097,1.374851271,0.048611111,5,1,1,0,0.546006944,0.675347222,0.627604167,0.657986111,0.513020833,0.611111111,0.467881944,0.506944444,2,55.5,45.89566667,"yogurt","sourcreamchips",1,5,7,-0.795884895560023,-0.11940127602272,1
"779",3,75,3,16,1,19,23,1,0.838088433,0.247395833,0.588107639,0.168836806,0.723524306,0.078559028,-0.135416667,-0.135416667,2,0.873445548,1.031373191,1.621991826,1.007422143,0.078559028,6,1,1,0,0.221354167,0.2734375,0.543402778,0.6328125,0.181423611,0.15625,0.657118056,0.789930556,2,55.5,45.89566667,"smarties","tomatoes",1,6,2,-0.562928440937487,-0.234732219363895,0
"785",3,81,3,22,1,16,4,-1,1.164311422,0.275173611,0.81640625,0.174479167,0.754340278,0.100694444,0.062065972,0.062065972,6,2.487967018,1.355765924,2.406572337,1.390782986,0.100694444,7,1,1,0,0.280381944,0.269965278,0.750868056,0.881944444,0.118923611,0.230034722,0.743923611,0.764756944,2,55.5,45.89566667,"plum","mikado",0,6,5,-0.390743242449226,-0.658448096137393,0
"786",3,82,3,23,1,25,30,1,0.734037636,0.625434028,0.444444444,0.108506944,0.476128472,0.516927083,-0.031684028,-0.031684028,4,0.789579048,1.315040495,0.989968083,0.856431239,0.516927083,0,1,1,0,0.65625,0.594618056,0.411458333,0.477430556,0.0859375,0.131076389,0.457465278,0.494791667,2,55.5,45.89566667,"wasafibers","radish",1,8,4,2.84701382358051,-0.833951709839258,0
"787",3,83,3,24,1,17,9,1,1.148030694,0.266927083,0.76953125,0.327690972,0.626736111,-0.060763889,0.142795139,0.142795139,7,1.723273275,0.973989007,1.273233467,1.174296975,-0.060763889,3,1,1,0,0.245659722,0.288194444,0.682291667,0.856770833,0.417534722,0.237847222,0.625868056,0.627604167,2,55.5,45.89566667,"raisins","orange",1,4,7,-0.701351840833887,-0.192109913839336,1
"788",3,84,3,25,1,13,4,-1,1.134947402,0.227864583,0.762152778,0.174479167,0.754340278,0.053385417,0.0078125,0.0078125,5,0.84868995,1.107521727,2.406572337,1.390782986,0.053385417,6,1,1,0,0.244791667,0.2109375,0.710069444,0.814236111,0.118923611,0.230034722,0.743923611,0.764756944,2,55.5,45.89566667,"pear","mikado",0,5,5,-0.758746906996641,-0.971847409620196,0
"789",3,85,3,26,1,26,11,-1,0.6659255,0.450954861,0.792534722,0.270399306,0.952256944,0.180555556,-0.159722222,-0.159722222,1,1.64832168,1.331610929,1.155222295,1.655647396,0.180555556,8,1,1,0,0.629340278,0.272569444,0.8046875,0.780381944,0.263888889,0.276909722,0.936631944,0.967881944,2,55.5,45.89566667,"zucchini","chocolatechipcookie",0,7,2,0.230473969877537,-0.0943293295577177,1
"790",3,86,3,27,1,10,6,-1,0.70292656,0.246527778,0.809461806,0.576822917,0.910590278,-0.330295139,-0.101128472,-0.101128472,2,1.739187781,0.882503814,1.331334165,1.589793036,-0.330295139,0,1,1,0,0.264756944,0.228298611,0.835069444,0.783854167,0.596354167,0.557291667,0.868055556,0.953125,2,55.5,45.89566667,"oreo","mandm",0,1,3,1.39525622743278,-0.432800589505523,1
"791",3,87,3,28,1,30,29,-1,1.238335729,0.108506944,0.476128472,0.562065972,0.487413194,-0.453559028,-0.011284722,-0.011284722,4,0.989968083,0.856431239,1.231151097,1.374851271,-0.453559028,0,1,1,0,0.0859375,0.131076389,0.457465278,0.494791667,0.513020833,0.611111111,0.467881944,0.506944444,2,55.5,45.89566667,"radish","sourcreamchips",0,1,4,2.35409148012918,-0.951789854758824,1
"797",3,93,4,6,1,25,32,-1,1.006764366,0.625434028,0.444444444,0.610677083,0.642795139,0.014756944,-0.198350694,-0.198350694,1,0.789579048,1.315040495,1.980099152,1.083210856,0.014756944,5,1,1,0,0.65625,0.594618056,0.411458333,0.477430556,0.546006944,0.675347222,0.627604167,0.657986111,2,55.5,45.89566667,"wasafibers","yogurt",0,5,1,-1.05922697436034,0.128810981272337,1
"798",3,94,4,7,1,19,13,1,0.71187631,0.247395833,0.588107639,0.227864583,0.762152778,0.01953125,-0.174045139,-0.174045139,1,0.873445548,1.031373191,0.84868995,1.107521727,0.01953125,5,1,1,0,0.221354167,0.2734375,0.543402778,0.6328125,0.244791667,0.2109375,0.710069444,0.814236111,2,55.5,45.89566667,"smarties","pear",1,5,2,-1.02208898579695,-0.0115919085338399,0
"799",3,95,4,8,1,31,11,1,0.768730716,0.8203125,0.811631944,0.270399306,0.952256944,0.549913194,-0.140625,-0.140625,2,0.963788983,1.13323832,1.155222295,1.655647396,0.549913194,0,1,1,0,0.801215278,0.839409722,0.808159722,0.815104167,0.263888889,0.276909722,0.936631944,0.967881944,2,55.5,45.89566667,"muffins","chocolatechipcookie",1,8,2,3.10360353799522,-0.204645887071837,0
"800",3,96,4,9,1,11,22,1,0.732001869,0.270399306,0.952256944,0.169704861,0.888888889,0.100694444,0.063368056,0.063368056,6,1.155222295,1.655647396,1.271907531,0.848471355,0.100694444,7,1,1,0,0.263888889,0.276909722,0.936631944,0.967881944,0.170138889,0.169270833,0.84375,0.934027778,2,55.5,45.89566667,"chocolatechipcookie","toblerone",1,6,6,-0.390743242449226,-0.650926508731947,1
"801",3,97,4,10,1,4,9,1,0.602099937,0.174479167,0.754340278,0.327690972,0.626736111,-0.153211806,0.127604167,0.127604167,7,2.406572337,1.390782986,1.273233467,1.174296975,-0.153211806,1,1,1,0,0.118923611,0.230034722,0.743923611,0.764756944,0.417534722,0.237847222,0.625868056,0.627604167,2,55.5,45.89566667,"mikado","orange",1,2,6,0.0177746006330928,-0.279861720690269,1
"802",3,98,4,11,1,17,19,-1,0.661646323,0.266927083,0.76953125,0.247395833,0.588107639,0.01953125,0.181423611,0.181423611,8,1.723273275,0.973989007,0.873445548,1.031373191,0.01953125,5,1,1,0,0.245659722,0.288194444,0.682291667,0.856770833,0.221354167,0.2734375,0.543402778,0.6328125,2,55.5,45.89566667,"raisins","smarties",0,5,7,-1.02208898579695,0.0310303969907188,0
"807",3,103,4,16,1,22,3,1,1.291610122,0.169704861,0.888888889,0.427083333,0.931423611,-0.257378472,-0.042534722,-0.042534722,4,1.271907531,0.848471355,1.114718732,1.073509605,-0.257378472,0,1,1,0,0.170138889,0.169270833,0.84375,0.934027778,0.538194444,0.315972222,0.918402778,0.944444444,2,55.5,45.89566667,"toblerone","petitbeurre",1,1,4,0.828057906854687,-0.771271849453328,0
"808",3,104,4,17,1,27,14,1,0.811487788,0.208767361,0.817708333,0.46875,0.810763889,-0.259982639,0.006944444,0.006944444,5,1.63064746,0.981346012,2.306205376,1.056757838,-0.259982639,0,1,1,0,0.251736111,0.165798611,0.860243056,0.775173611,0.460069444,0.477430556,0.8359375,0.785590278,2,55.5,45.89566667,"graneochips","applered",1,1,5,0.848314992232778,-0.976861801223827,1
"809",3,105,4,18,1,19,2,1,0.892742949,0.247395833,0.588107639,0.117621528,0.515190972,0.129774306,0.072916667,0.072916667,6,0.873445548,1.031373191,0.814175643,1.131151069,0.129774306,7,1,1,0,0.221354167,0.2734375,0.543402778,0.6328125,0.102430556,0.1328125,0.533854167,0.496527778,2,55.5,45.89566667,"smarties","salad",1,7,6,-0.164539144433574,-0.595768229974887,1
"810",3,106,4,19,1,25,1,-1,2.033784282,0.625434028,0.444444444,0.678385417,0.522135417,-0.052951389,-0.077690972,-0.077690972,3,0.789579048,1.315040495,1.506364864,1.022643885,-0.052951389,3,1,1,0,0.65625,0.594618056,0.411458333,0.477430556,0.646701389,0.710069444,0.526909722,0.517361111,2,55.5,45.89566667,"wasafibers","blevita",0,4,3,-0.762123089189443,-0.568189093484645,1
"817",3,113,5,1,1,14,32,-1,0.906376071,0.46875,0.810763889,0.610677083,0.642795139,-0.141927083,0.16796875,0.16796875,8,2.306205376,1.056757838,1.980099152,1.083210856,-0.141927083,2,0,1,0,0.460069444,0.477430556,0.8359375,0.785590278,0.546006944,0.675347222,0.627604167,0.657986111,2,55.5,45.89566667,"applered","yogurt",0,2,7,-0.0700060974861583,-0.0466926324295281,0
"818",3,114,5,2,1,19,29,1,0.980193871,0.247395833,0.588107639,0.562065972,0.487413194,-0.314670139,0.100694444,0.100694444,7,0.873445548,1.031373191,1.231151097,1.374851271,-0.314670139,0,0,1,0,0.221354167,0.2734375,0.543402778,0.6328125,0.513020833,0.611111111,0.467881944,0.506944444,2,55.5,45.89566667,"smarties","sourcreamchips",1,1,6,1.27371373072167,-0.435307785307338,1
"819",3,115,5,3,1,10,16,1,1.228219189,0.246527778,0.809461806,0.275173611,0.81640625,-0.028645833,-0.006944444,-0.006944444,4,1.739187781,0.882503814,2.487967018,1.355765924,-0.028645833,4,0,1,0,0.264756944,0.228298611,0.835069444,0.783854167,0.280381944,0.269965278,0.750868056,0.881944444,2,55.5,45.89566667,"oreo","plum",1,4,4,-0.951189198641713,-0.976861801223827,0
"820",3,116,5,4,1,1,32,-1,1.047622772,0.678385417,0.522135417,0.610677083,0.642795139,0.067708333,-0.120659722,-0.120659722,2,1.506364864,1.022643885,1.980099152,1.083210856,0.067708333,6,0,1,0,0.646701389,0.710069444,0.526909722,0.517361111,0.546006944,0.675347222,0.627604167,0.657986111,2,55.5,45.89566667,"blevita","yogurt",0,6,3,-0.647332956863936,-0.319976836189588,1
"821",3,117,5,5,1,32,16,1,0.855013427,0.610677083,0.642795139,0.275173611,0.81640625,0.335503472,-0.173611111,-0.173611111,1,1.980099152,1.083210856,2.487967018,1.355765924,0.335503472,0,0,1,0,0.546006944,0.675347222,0.627604167,0.657986111,0.280381944,0.269965278,0.750868056,0.881944444,2,55.5,45.89566667,"yogurt","plum",1,8,2,1.43577039041024,-0.0140991043356552,0
"822",3,118,5,6,1,15,9,1,0.979629819,0.15234375,0.516493056,0.327690972,0.626736111,-0.175347222,-0.110243056,-0.110243056,2,1.189855215,1.073523827,1.273233467,1.174296975,-0.175347222,1,0,1,0,0.074652778,0.230034722,0.518229167,0.514756944,0.417534722,0.237847222,0.625868056,0.627604167,2,55.5,45.89566667,"pringles","orange",1,2,3,0.189959799121354,-0.380149500773702,0
"823",3,119,5,7,1,28,1,1,0.770988634,0.163628472,0.526475694,0.678385417,0.522135417,-0.514756944,0.004340278,0.004340278,5,1.381050446,0.882407529,1.506364864,1.022643885,-0.514756944,0,0,1,0,0.160590278,0.166666667,0.5,0.552951389,0.646701389,0.710069444,0.526909722,0.517361111,2,55.5,45.89566667,"paprikachips","blevita",1,1,5,2.83013292039522,-0.991904964481568,1
"828",3,124,5,12,1,9,30,1,1.509317963,0.327690972,0.626736111,0.108506944,0.476128472,0.219184028,0.150607639,0.150607639,8,1.273233467,1.174296975,0.989968083,0.856431239,0.219184028,0,0,1,0,0.417534722,0.237847222,0.625868056,0.627604167,0.0859375,0.131076389,0.457465278,0.494791667,2,55.5,45.89566667,"orange","radish",1,8,7,0.530954029462513,-0.146980412512962,1
"829",3,125,5,13,1,19,15,1,0.847642058,0.247395833,0.588107639,0.15234375,0.516493056,0.095052083,0.071614583,0.071614583,6,0.873445548,1.031373191,1.189855215,1.073523827,0.095052083,6,0,1,0,0.221354167,0.2734375,0.543402778,0.6328125,0.074652778,0.230034722,0.518229167,0.514756944,2,55.5,45.89566667,"smarties","pringles",1,6,6,-0.434633587619491,-0.603289817380333,1
"830",3,126,5,14,1,32,23,1,0.629921986,0.610677083,0.642795139,0.168836806,0.723524306,0.441840278,-0.080729167,-0.080729167,3,1.980099152,1.083210856,1.621991826,1.007422143,0.441840278,0,0,1,0,0.546006944,0.675347222,0.627604167,0.657986111,0.181423611,0.15625,0.657118056,0.789930556,2,55.5,45.89566667,"yogurt","tomatoes",1,8,3,2.26293460759584,-0.550638728648513,0
"831",3,127,5,15,1,24,3,-1,0.678671441,0.549045139,0.828559028,0.427083333,0.931423611,0.121961806,-0.102864583,-0.102864583,2,1.430967972,0.982180002,1.114718732,1.073509605,0.121961806,7,0,1,0,0.575520833,0.522569444,0.868923611,0.788194444,0.538194444,0.315972222,0.918402778,0.944444444,2,55.5,45.89566667,"twix","petitbeurre",0,7,3,-0.225310392789129,-0.422771812074837,1
"832",3,128,5,16,1,23,6,-1,0.58503073,0.168836806,0.723524306,0.576822917,0.910590278,-0.407986111,-0.187065972,-0.187065972,1,1.621991826,1.007422143,1.331334165,1.589793036,-0.407986111,0,0,1,0,0.181423611,0.15625,0.657118056,0.789930556,0.596354167,0.557291667,0.868055556,0.953125,2,55.5,45.89566667,"tomatoes","mandm",0,1,2,1.99959252879553,0.0636239250845915,1
"833",3,129,5,17,1,31,13,1,0.741719334,0.8203125,0.811631944,0.227864583,0.762152778,0.592447917,0.049479167,0.049479167,5,0.963788983,1.13323832,0.84868995,1.107521727,0.592447917,0,0,1,0,0.801215278,0.839409722,0.808159722,0.815104167,0.244791667,0.2109375,0.710069444,0.814236111,2,55.5,45.89566667,"muffins","pear",1,8,5,3.43446922953669,-0.731156733954009,1
"839",3,135,5,23,1,6,26,1,0.91005308,0.576822917,0.910590278,0.450954861,0.792534722,0.125868056,0.118055556,0.118055556,7,1.331334165,1.589793036,1.64832168,1.331610929,0.125868056,7,0,1,0,0.596354167,0.557291667,0.868055556,0.953125,0.629340278,0.272569444,0.8046875,0.780381944,2,55.5,45.89566667,"mandm","zucchini",1,7,6,-0.194924768611351,-0.335019999447328,1
"840",3,136,5,24,1,25,28,-1,0.580977686,0.625434028,0.444444444,0.163628472,0.526475694,0.461805556,-0.08203125,-0.08203125,3,0.789579048,1.315040495,1.381050446,0.882407529,0.461805556,0,0,1,0,0.65625,0.594618056,0.411458333,0.477430556,0.160590278,0.166666667,0.5,0.552951389,2,55.5,45.89566667,"wasafibers","paprikachips",0,8,3,2.41823891067754,-0.543117147019643,1
"841",3,137,5,25,1,10,18,1,0.826392091,0.246527778,0.809461806,0.352430556,0.817274306,-0.105902778,-0.0078125,-0.0078125,4,1.739187781,0.882503814,1.131769023,1.447134069,-0.105902778,2,0,1,0,0.264756944,0.228298611,0.835069444,0.783854167,0.349826389,0.355034722,0.780381944,0.854166667,2,55.5,45.89566667,"oreo","rasberries",1,3,4,-0.350229071693042,-0.971847409620196,0
"842",3,138,5,26,1,22,27,1,0.763256874,0.169704861,0.888888889,0.208767361,0.817708333,-0.0390625,0.071180556,0.071180556,6,1.271907531,0.848471355,1.63064746,0.981346012,-0.0390625,4,0,1,0,0.170138889,0.169270833,0.84375,0.934027778,0.251736111,0.165798611,0.860243056,0.775173611,2,55.5,45.89566667,"toblerone","graneochips",1,4,6,-0.870160864908066,-0.605797007405573,1
"849",3,145,6,1,1,4,6,-1,1.176222519,0.174479167,0.754340278,0.576822917,0.910590278,-0.40234375,-0.15625,-0.15625,1,2.406572337,1.390782986,1.331334165,1.589793036,-0.40234375,0,0,1,0,0.118923611,0.230034722,0.743923611,0.764756944,0.596354167,0.557291667,0.868055556,0.953125,2,55.5,45.89566667,"mikado","mandm",0,1,2,1.95570218362527,-0.114386884419089,1
"850",3,146,6,2,1,1,19,-1,0.847628689,0.678385417,0.522135417,0.247395833,0.588107639,0.430989583,-0.065972222,-0.065972222,3,1.506364864,1.022643885,0.873445548,1.031373191,0.430989583,0,0,1,0,0.646701389,0.710069444,0.526909722,0.517361111,0.221354167,0.2734375,0.543402778,0.6328125,2,55.5,45.89566667,"blevita","smarties",0,8,3,2.1785300916694,-0.635883345474206,1
"851",3,147,6,3,1,9,18,-1,0.624089459,0.327690972,0.626736111,0.352430556,0.817274306,-0.024739583,-0.190538194,-0.190538194,1,1.273233467,1.174296975,1.131769023,1.447134069,-0.024739583,4,0,1,0,0.417534722,0.237847222,0.625868056,0.627604167,0.349826389,0.355034722,0.780381944,0.854166667,2,55.5,45.89566667,"orange","rasberries",0,4,2,-0.981574822819491,0.083681479945963,1
"852",3,148,6,4,1,10,22,-1,0.691036227,0.246527778,0.809461806,0.169704861,0.888888889,0.076822917,-0.079427083,-0.079427083,3,1.739187781,0.882503814,1.271907531,0.848471355,0.076822917,6,0,1,0,0.264756944,0.228298611,0.835069444,0.783854167,0.170138889,0.169270833,0.84375,0.934027778,2,55.5,45.89566667,"oreo","toblerone",0,6,3,-0.576433161929974,-0.558160316053959,1
"853",3,149,6,5,1,19,30,1,0.525826815,0.247395833,0.588107639,0.108506944,0.476128472,0.138888889,0.111979167,0.111979167,7,0.873445548,1.031373191,0.989968083,0.856431239,0.138888889,7,0,1,0,0.221354167,0.2734375,0.543402778,0.6328125,0.0859375,0.131076389,0.457465278,0.494791667,2,55.5,45.89566667,"smarties","radish",1,7,6,-0.0936393572783323,-0.370120723343017,1
"854",3,150,6,6,1,2,25,-1,1.045267006,0.117621528,0.515190972,0.625434028,0.444444444,-0.5078125,0.070746528,0.070746528,6,0.814175643,1.131151069,0.789579048,1.315040495,-0.5078125,0,0,1,0,0.102430556,0.1328125,0.533854167,0.496527778,0.65625,0.594618056,0.411458333,0.477430556,2,55.5,45.89566667,"salad","wasafibers",0,1,6,2.77611403642526,-0.608304203207388,0
"861",3,157,6,13,1,2,28,-1,0.890622133,0.117621528,0.515190972,0.163628472,0.526475694,-0.046006944,-0.011284722,-0.011284722,4,0.814175643,1.131151069,1.381050446,0.882407529,-0.046006944,4,0,1,0,0.102430556,0.1328125,0.533854167,0.496527778,0.160590278,0.166666667,0.5,0.552951389,2,55.5,45.89566667,"salad","paprikachips",0,4,4,-0.816141980938114,-0.951789854758824,1
"862",3,158,6,14,1,6,24,1,0.789896772,0.576822917,0.910590278,0.549045139,0.828559028,0.027777778,0.08203125,0.08203125,6,1.331334165,1.589793036,1.430967972,0.982180002,0.027777778,5,0,1,0,0.596354167,0.557291667,0.868055556,0.953125,0.575520833,0.522569444,0.868923611,0.788194444,2,55.5,45.89566667,"mandm","twix",1,5,6,-0.957941555248597,-0.543117147019643,1
"863",3,159,6,15,1,20,9,1,0.656974613,0.229166667,0.789496528,0.327690972,0.626736111,-0.098524306,0.162760417,0.162760417,8,0.955945579,1.231388181,1.273233467,1.174296975,-0.098524306,3,0,1,0,0.254340278,0.203993056,0.868923611,0.710069444,0.417534722,0.237847222,0.625868056,0.627604167,2,55.5,45.89566667,"snickers","orange",1,3,7,-0.407624137855796,-0.0767789647215855,1
"864",3,160,6,16,1,11,20,1,0.668461604,0.270399306,0.952256944,0.229166667,0.789496528,0.041232639,0.162760417,0.162760417,8,1.155222295,1.655647396,0.955945579,1.231388181,0.041232639,5,0,1,0,0.263888889,0.276909722,0.936631944,0.967881944,0.254340278,0.203993056,0.868923611,0.710069444,2,55.5,45.89566667,"chocolatechipcookie","snickers",1,5,7,-0.853279961722776,-0.0767789647215855,1
"865",3,161,6,17,1,18,3,-1,0.711875457,0.352430556,0.817274306,0.427083333,0.931423611,-0.074652778,-0.114149306,-0.114149306,2,1.131769023,1.447134069,1.114718732,1.073509605,-0.074652778,3,0,1,0,0.349826389,0.355034722,0.780381944,0.854166667,0.538194444,0.315972222,0.918402778,0.944444444,2,55.5,45.89566667,"rasberries","petitbeurre",0,3,3,-0.593314065115264,-0.357584750110515,1
"873",3,169,6,25,1,16,27,-1,1.105281302,0.275173611,0.81640625,0.208767361,0.817708333,0.06640625,-0.001302083,-0.001302083,4,2.487967018,1.355765924,1.63064746,0.981346012,0.06640625,6,0,1,0,0.280381944,0.269965278,0.750868056,0.881944444,0.251736111,0.165798611,0.860243056,0.775173611,2,55.5,45.89566667,"plum","graneochips",0,6,4,-0.657461495663622,-1.0094553293177,1
"874",3,170,6,26,1,31,26,1,1.062013654,0.8203125,0.811631944,0.450954861,0.792534722,0.369357639,0.019097222,0.019097222,5,0.963788983,1.13323832,1.64832168,1.331610929,0.369357639,0,0,1,0,0.801215278,0.839409722,0.808159722,0.815104167,0.629340278,0.272569444,0.8046875,0.780381944,2,55.5,45.89566667,"muffins","zucchini",1,8,5,1.69911246921056,-0.90666035343245,1
"875",3,171,6,27,1,9,28,1,0.883648701,0.327690972,0.626736111,0.163628472,0.526475694,0.1640625,0.100260417,0.100260417,7,1.273233467,1.174296975,1.381050446,0.882407529,0.1640625,8,0,1,0,0.417534722,0.237847222,0.625868056,0.627604167,0.160590278,0.166666667,0.5,0.552951389,2,55.5,45.89566667,"orange","paprikachips",1,7,6,0.102179108780822,-0.437814975332578,1
"876",3,172,6,28,1,32,9,1,0.775169678,0.610677083,0.642795139,0.327690972,0.626736111,0.282986111,0.016059028,0.016059028,5,1.980099152,1.083210856,1.273233467,1.174296975,0.282986111,0,0,1,0,0.546006944,0.675347222,0.627604167,0.657986111,0.417534722,0.237847222,0.625868056,0.627604167,2,55.5,45.89566667,"yogurt","orange",1,8,5,1.02725255510664,-0.924210712492006,1
"887",3,7,1,7,1,28,19,-1,1.457358482,0.56640625,0.756944444,0.376736111,0.875,0.189670139,-0.118055556,-0.118055556,2,1.585393542,1.242140724,0.907520943,1.134039258,0.189670139,8,0,0,0,0.614583333,0.518229167,0.8515625,0.662326389,0.342013889,0.411458333,0.905381944,0.844618056,2,55.5,13.1914,"mango","cottagecheese",0,8,3,0.301373757032778,-0.335019999447328,1
"888",3,8,1,8,1,3,31,-1,1.550672527,0.410590278,0.836371528,0.372395833,0.757378472,0.038194444,0.078993056,0.078993056,6,2.640346391,0.826052737,1.61666268,1.758868201,0.038194444,5,0,0,0,0.266493056,0.5546875,0.880208333,0.792534722,0.443576389,0.301215278,0.861111111,0.653645833,2,55.5,13.1914,"banana","melon",0,5,6,-0.87691322929367,-0.560667506079199,0
"889",3,9,1,9,1,2,16,1,0.84024254,0.301215278,0.543402778,0.4375,0.635416667,-0.136284722,-0.092013889,-0.092013889,3,2.433201882,1.441714598,1.717327057,1.043483474,-0.136284722,2,0,0,0,0.283854167,0.318576389,0.466145833,0.620659722,0.433159722,0.441840278,0.643229167,0.627604167,2,55.5,13.1914,"balisto","applegreen",1,2,3,-0.113896442656424,-0.485451672460767,0
"890",3,10,1,10,1,28,12,-1,1.041500468,0.56640625,0.756944444,0.296006944,0.749131944,0.270399306,0.0078125,0.0078125,5,1.585393542,1.242140724,1.825147776,1.284331255,0.270399306,0,0,0,0,0.614583333,0.518229167,0.8515625,0.662326389,0.379340278,0.212673611,0.828125,0.670138889,2,55.5,13.1914,"mango","croissant",0,8,5,0.929343325966426,-0.971847409620196,0
"891",3,11,1,11,1,16,23,-1,0.647685773,0.4375,0.635416667,0.731770833,0.736111111,-0.294270833,-0.100694444,-0.100694444,2,1.717327057,1.043483474,1.225436004,1.117909685,-0.294270833,0,0,0,0,0.433159722,0.441840278,0.643229167,0.627604167,0.889756944,0.573784722,0.686631944,0.785590278,2,55.5,13.1914,"applegreen","kitkat",0,1,3,1.11503324544717,-0.435307785307338,1
"892",3,12,1,12,1,30,24,1,0.830759157,0.15234375,0.777777778,0.244357639,0.717881944,-0.092013889,0.059895833,0.059895833,6,2.015211244,1.491942964,1.192418812,1.433467127,-0.092013889,3,0,0,0,0.157986111,0.146701389,0.855034722,0.700520833,0.261284722,0.227430556,0.866319444,0.569444444,2,55.5,13.1914,"mars","kiwi",1,3,5,-0.458266847411665,-0.670984069369894,1
