Participant,Trial_Nr,Run_Nr,Trial_nr_run,Cue_Taste1_Size2,Top_image_index,Bottom_image_index,Choice,RT_choice,Size_top_image,Taste_top_image,Size_bottom_image,Taste_bottom_image,Size_diff,Taste_diff,Cued_diff,Category,mean_RT_size_pic1,mean_RT_taste_pic1,mean_RT_size_pic2,mean_RT_taste_pic2,Diff_category_oposite_to_cue,Category_opposite_to_cue,Stimulation,Session_type,Accuracy,Size1_TopPic,Size2_TopPic,Taste1_TopPic,Taste2_TopPic,Size1_BotPic,Size2_BotPic,Taste1_BotPic,Taste2_BotPic,Amplitude,Circumfence,Time_between_tasks,Name_top_image,Name_bottom_image
1,1,1,1,1,4,1,-1,1.767825067,0.347222222,0.371527778,0.626302083,0.274739583,-0.279079861,0.096788194,0.096788194,6,2.362687289,1.572754489,1.888526933,3.379911822,-0.279079861,0,1,1,0,0.311631944,0.3828125,0.388020833,0.355034722,0.701388889,0.551215278,0.365451389,0.184027778,1,57,33.12138333,mikado,blevita
1,2,1,2,1,10,5,-1,1.46487552,0.260850694,0.417534722,0.523003472,0.405815972,-0.262152778,0.01171875,0.01171875,5,1.813897813,2.0965632,2.68007936,1.555521138,-0.262152778,0,1,1,0,0.300347222,0.221354167,0.342013889,0.493055556,0.572048611,0.473958333,0.420138889,0.391493056,1,57,33.12138333,oreo,rizaulait
1,3,1,3,1,31,1,-1,1.494438969,0.473524306,0.234809028,0.626302083,0.274739583,-0.152777778,-0.039930556,-0.039930556,4,1.762503538,1.938525013,1.888526933,3.379911822,-0.152777778,1,1,1,0,0.493923611,0.453125,0.296875,0.172743056,0.701388889,0.551215278,0.365451389,0.184027778,1,57,33.12138333,muffins,blevita
1,4,1,4,1,10,2,1,1.572429653,0.260850694,0.417534722,0.268229167,0.604600694,-0.007378472,-0.187065972,-0.187065972,1,1.813897813,2.0965632,2.6136576,1.422693831,-0.007378472,4,1,1,0,0.300347222,0.221354167,0.342013889,0.493055556,0.308159722,0.228298611,0.590277778,0.618923611,1,57,33.12138333,oreo,salad
1,5,1,5,1,3,16,-1,1.436993991,0.485243056,0.625,0.329861111,0.737847222,0.155381944,-0.112847222,-0.112847222,2,1.822734507,2.121227378,1.63076096,1.489164231,0.155381944,8,1,1,0,0.463541667,0.506944444,0.663194444,0.586805556,0.316840278,0.342881944,0.821180556,0.654513889,1,57,33.12138333,petitbeurre,plum
1,6,1,6,2,10,4,-1,1.44894976,0.260850694,0.417534722,0.347222222,0.371527778,-0.086371528,0.046006944,-0.086371528,3,1.813897813,2.0965632,2.362687289,1.572754489,0.046006944,5,1,1,0,0.300347222,0.221354167,0.342013889,0.493055556,0.311631944,0.3828125,0.388020833,0.355034722,1,57,33.12138333,oreo,mikado
1,7,1,7,2,24,3,-1,1.488925867,0.313368056,0.465711806,0.485243056,0.625,-0.171875,-0.159288194,-0.171875,1,2.347235982,1.929689884,1.822734507,2.121227378,-0.159288194,1,1,1,0,0.300347222,0.326388889,0.416666667,0.514756944,0.463541667,0.506944444,0.663194444,0.586805556,1,57,33.12138333,twix,petitbeurre
1,8,1,8,2,26,18,-1,1.818482347,0.304253472,0.067708333,0.434027778,0.402777778,-0.129774306,-0.335069444,-0.129774306,2,2.270968462,2.837418667,2.046184391,2.621846471,-0.335069444,0,1,1,0,0.271701389,0.336805556,0.078993056,0.056423611,0.40625,0.461805556,0.453993056,0.3515625,1,57,33.12138333,zucchini,rasberries
1,9,1,9,2,3,22,1,1.210075022,0.485243056,0.625,0.384548611,0.392795139,0.100694444,0.232204861,0.100694444,7,1.822734507,2.121227378,2.171847822,1.663582009,0.232204861,0,1,1,0,0.463541667,0.506944444,0.663194444,0.586805556,0.227430556,0.541666667,0.297743056,0.487847222,1,57,33.12138333,petitbeurre,toblerone
1,10,1,10,2,26,3,-1,1.382334009,0.304253472,0.067708333,0.485243056,0.625,-0.180989583,-0.557291667,-0.180989583,1,2.270968462,2.837418667,1.822734507,2.121227378,-0.557291667,0,1,1,0,0.271701389,0.336805556,0.078993056,0.056423611,0.463541667,0.506944444,0.663194444,0.586805556,1,57,33.12138333,zucchini,petitbeurre
1,11,1,11,2,11,19,-1,1.611372089,0.388888889,0.893229167,0.337239583,0.309027778,0.051649306,0.584201389,0.051649306,6,2.06403328,1.730654151,1.996787058,1.904550542,0.584201389,0,1,1,0,0.388020833,0.389756944,0.879340278,0.907118056,0.310763889,0.363715278,0.373263889,0.244791667,1,57,33.12138333,chocolatechipcookie,smarties
1,12,1,12,1,26,30,1,1.441526329,0.304253472,0.067708333,0.493055556,0.013020833,-0.188802083,0.0546875,0.0546875,6,2.270968462,2.837418667,2.888347164,2.372276764,-0.188802083,1,1,1,0,0.271701389,0.336805556,0.078993056,0.056423611,0.644965278,0.341145833,0.018229167,0.0078125,1,57,33.12138333,zucchini,radish
1,13,1,13,1,9,14,1,1.765836516,0.373697917,0.551649306,0.436631944,0.614583333,-0.062934028,-0.062934028,-0.062934028,3,2.329526044,1.906959218,2.979238969,1.897152853,-0.062934028,3,1,1,0,0.394097222,0.353298611,0.647569444,0.455729167,0.386284722,0.486979167,0.604166667,0.625,1,57,33.12138333,orange,applered
1,14,1,14,1,19,4,-1,1.762665813,0.337239583,0.309027778,0.347222222,0.371527778,-0.009982639,-0.0625,-0.0625,3,1.996787058,1.904550542,2.362687289,1.572754489,-0.009982639,4,1,1,0,0.310763889,0.363715278,0.373263889,0.244791667,0.311631944,0.3828125,0.388020833,0.355034722,1,57,33.12138333,smarties,mikado
1,15,1,15,1,2,9,-1,1.192120889,0.268229167,0.604600694,0.373697917,0.551649306,-0.10546875,0.052951389,0.052951389,6,2.6136576,1.422693831,2.329526044,1.906959218,-0.10546875,2,1,1,0,0.308159722,0.228298611,0.590277778,0.618923611,0.394097222,0.353298611,0.647569444,0.455729167,1,57,33.12138333,salad,orange
1,16,1,16,1,31,20,-1,1.323469938,0.473524306,0.234809028,0.513888889,0.318576389,-0.040364583,-0.083767361,-0.083767361,3,1.762503538,1.938525013,2.588188871,1.554837618,-0.040364583,4,1,1,0,0.493923611,0.453125,0.296875,0.172743056,0.421006944,0.606770833,0.414930556,0.222222222,1,57,33.12138333,muffins,snickers
1,17,1,17,1,16,23,1,1.258801778,0.329861111,0.737847222,0.412326389,0.64453125,-0.082465278,0.093315972,0.093315972,6,1.63076096,1.489164231,1.979420444,2.030724124,-0.082465278,3,1,1,0,0.316840278,0.342881944,0.821180556,0.654513889,0.295138889,0.529513889,0.616319444,0.672743056,1,57,33.12138333,plum,tomatoes
1,18,1,18,2,8,30,1,0.960136533,0.674045139,0.283420139,0.493055556,0.013020833,0.180989583,0.270399306,0.180989583,8,2.988380871,1.597118009,2.888347164,2.372276764,0.270399306,0,1,1,0,0.790798611,0.557291667,0.375,0.191840278,0.644965278,0.341145833,0.018229167,0.0078125,1,57,33.12138333,lachgummi,radish
1,19,1,19,2,24,13,1,1.846477084,0.313368056,0.465711806,0.292534722,0.708333333,0.020833333,-0.242621528,0.020833333,5,2.347235982,1.929689884,1.580664889,2.304880356,-0.242621528,0,1,1,0,0.300347222,0.326388889,0.416666667,0.514756944,0.325520833,0.259548611,0.685763889,0.730902778,1,57,33.12138333,twix,pear
1,20,1,20,2,13,10,1,1.707538489,0.292534722,0.708333333,0.260850694,0.417534722,0.031684028,0.290798611,0.031684028,5,1.580664889,2.304880356,1.813897813,2.0965632,0.290798611,0,1,1,0,0.325520833,0.259548611,0.685763889,0.730902778,0.300347222,0.221354167,0.342013889,0.493055556,1,57,33.12138333,pear,oreo
1,21,1,21,2,2,23,-1,1.524396658,0.268229167,0.604600694,0.412326389,0.64453125,-0.144097222,-0.039930556,-0.144097222,2,2.6136576,1.422693831,1.979420444,2.030724124,-0.039930556,4,1,1,0,0.308159722,0.228298611,0.590277778,0.618923611,0.295138889,0.529513889,0.616319444,0.672743056,1,57,33.12138333,salad,tomatoes
1,22,1,22,2,26,23,1,1.35752448,0.304253472,0.067708333,0.412326389,0.64453125,-0.108072917,-0.576822917,-0.108072917,2,2.270968462,2.837418667,1.979420444,2.030724124,-0.576822917,0,1,1,0,0.271701389,0.336805556,0.078993056,0.056423611,0.295138889,0.529513889,0.616319444,0.672743056,1,57,33.12138333,zucchini,tomatoes
1,23,1,23,2,27,17,-1,1.493425493,0.381076389,0.238715278,0.5,0.739583333,-0.118923611,-0.500868056,-0.118923611,2,2.29582336,1.929995378,2.363587413,1.889484089,-0.500868056,0,1,1,0,0.322916667,0.439236111,0.3515625,0.125868056,0.375,0.625,0.737847222,0.741319444,1,57,33.12138333,graneochips,raisins
1,24,1,24,2,5,22,1,1.055717262,0.523003472,0.405815972,0.384548611,0.392795139,0.138454861,0.013020833,0.138454861,7,2.68007936,1.555521138,2.171847822,1.663582009,0.013020833,5,1,1,0,0.572048611,0.473958333,0.420138889,0.391493056,0.227430556,0.541666667,0.297743056,0.487847222,1,57,33.12138333,rizaulait,toblerone
1,25,1,25,1,7,8,-1,1.57311232,0.540798611,0.191840278,0.674045139,0.283420139,-0.133246528,-0.091579861,-0.091579861,3,1.729693867,1.655938276,2.988380871,1.597118009,-0.133246528,2,1,1,0,0.559027778,0.522569444,0.209201389,0.174479167,0.790798611,0.557291667,0.375,0.191840278,1,57,33.12138333,muesli,lachgummi
1,26,1,26,1,14,12,-1,1.246628124,0.436631944,0.614583333,0.791666667,0.696614583,-0.355034722,-0.08203125,-0.08203125,3,2.979238969,1.897152853,3.263822933,2.13839616,-0.355034722,0,1,1,0,0.386284722,0.486979167,0.604166667,0.625,0.799479167,0.783854167,0.729166667,0.6640625,1,57,33.12138333,applered,pizza
1,27,1,27,1,1,15,1,1.740530916,0.626302083,0.274739583,0.1328125,0.081163194,0.493489583,0.193576389,0.193576389,8,1.888526933,3.379911822,2.73741184,1.70495488,0.493489583,0,1,1,0,0.701388889,0.551215278,0.365451389,0.184027778,0.15625,0.109375,0.145833333,0.016493056,1,57,33.12138333,blevita,pringles
1,28,1,28,1,25,21,-1,1.778432,0.70703125,0.466145833,0.355902778,0.354600694,0.351128472,0.111545139,0.111545139,7,2.272516978,1.979454578,2.289274738,1.670899627,0.351128472,0,1,1,0,0.806423611,0.607638889,0.435763889,0.496527778,0.348958333,0.362847222,0.363715278,0.345486111,1,57,33.12138333,wasafibers,strawberries
1,29,1,29,1,5,27,1,1.288823467,0.523003472,0.405815972,0.381076389,0.238715278,0.141927083,0.167100694,0.167100694,8,2.68007936,1.555521138,2.29582336,1.929995378,0.141927083,7,1,1,0,0.572048611,0.473958333,0.420138889,0.391493056,0.322916667,0.439236111,0.3515625,0.125868056,1,57,33.12138333,rizaulait,graneochips
1,30,1,30,1,3,17,1,1.490266453,0.485243056,0.625,0.5,0.739583333,-0.014756944,-0.114583333,-0.114583333,2,1.822734507,2.121227378,2.363587413,1.889484089,-0.014756944,4,1,1,0,0.463541667,0.506944444,0.663194444,0.586805556,0.375,0.625,0.737847222,0.741319444,1,57,33.12138333,petitbeurre,raisins
1,31,2,1,2,13,27,1,3.395569493,0.292534722,0.708333333,0.381076389,0.238715278,-0.088541667,0.469618056,-0.088541667,3,1.580664889,2.304880356,2.29582336,1.929995378,0.469618056,0,1,1,0,0.325520833,0.259548611,0.685763889,0.730902778,0.322916667,0.439236111,0.3515625,0.125868056,1,57,33.12138333,pear,graneochips
1,32,2,2,2,4,22,-1,2.145944462,0.347222222,0.371527778,0.384548611,0.392795139,-0.037326389,-0.021267361,-0.037326389,4,2.362687289,1.572754489,2.171847822,1.663582009,-0.021267361,4,1,1,0,0.311631944,0.3828125,0.388020833,0.355034722,0.227430556,0.541666667,0.297743056,0.487847222,1,57,33.12138333,mikado,toblerone
1,33,2,3,2,28,24,-1,1.052280889,0.305989583,0.488715278,0.313368056,0.465711806,-0.007378472,0.023003472,-0.007378472,4,1.754060942,1.996853333,2.347235982,1.929689884,0.023003472,5,1,1,0,0.282986111,0.328993056,0.591145833,0.386284722,0.300347222,0.326388889,0.416666667,0.514756944,1,57,33.12138333,paprikachips,twix
1,34,2,4,2,16,23,1,2.146474951,0.329861111,0.737847222,0.412326389,0.64453125,-0.082465278,0.093315972,-0.082465278,3,1.63076096,1.489164231,1.979420444,2.030724124,0.093315972,6,1,1,0,0.316840278,0.342881944,0.821180556,0.654513889,0.295138889,0.529513889,0.616319444,0.672743056,1,57,33.12138333,plum,tomatoes
1,35,2,5,2,5,25,-1,1.263550578,0.523003472,0.405815972,0.70703125,0.466145833,-0.184027778,-0.060329861,-0.184027778,1,2.68007936,1.555521138,2.272516978,1.979454578,-0.060329861,3,1,1,0,0.572048611,0.473958333,0.420138889,0.391493056,0.806423611,0.607638889,0.435763889,0.496527778,1,57,33.12138333,rizaulait,wasafibers
1,36,2,6,2,17,7,-1,1.256596764,0.5,0.739583333,0.540798611,0.191840278,-0.040798611,0.547743056,-0.040798611,4,2.363587413,1.889484089,1.729693867,1.655938276,0.547743056,0,1,1,0,0.375,0.625,0.737847222,0.741319444,0.559027778,0.522569444,0.209201389,0.174479167,1,57,33.12138333,raisins,muesli
1,37,2,7,2,4,19,-1,1.397121991,0.347222222,0.371527778,0.337239583,0.309027778,0.009982639,0.0625,0.009982639,5,2.362687289,1.572754489,1.996787058,1.904550542,0.0625,6,1,1,0,0.311631944,0.3828125,0.388020833,0.355034722,0.310763889,0.363715278,0.373263889,0.244791667,1,57,33.12138333,mikado,smarties
1,38,2,8,1,10,8,1,2.189684053,0.260850694,0.417534722,0.674045139,0.283420139,-0.413194444,0.134114583,0.134114583,7,1.813897813,2.0965632,2.988380871,1.597118009,-0.413194444,0,1,1,0,0.300347222,0.221354167,0.342013889,0.493055556,0.790798611,0.557291667,0.375,0.191840278,1,57,33.12138333,oreo,lachgummi
1,39,2,9,1,2,13,-1,1.134384356,0.268229167,0.604600694,0.292534722,0.708333333,-0.024305556,-0.103732639,-0.103732639,2,2.6136576,1.422693831,1.580664889,2.304880356,-0.024305556,4,1,1,0,0.308159722,0.228298611,0.590277778,0.618923611,0.325520833,0.259548611,0.685763889,0.730902778,1,57,33.12138333,salad,pear
1,40,2,10,1,7,15,1,1.212129849,0.540798611,0.191840278,0.1328125,0.081163194,0.407986111,0.110677083,0.110677083,7,1.729693867,1.655938276,2.73741184,1.70495488,0.407986111,0,1,1,0,0.559027778,0.522569444,0.209201389,0.174479167,0.15625,0.109375,0.145833333,0.016493056,1,57,33.12138333,muesli,pringles
1,41,2,11,1,22,8,-1,1.389501156,0.384548611,0.392795139,0.674045139,0.283420139,-0.289496528,0.109375,0.109375,7,2.171847822,1.663582009,2.988380871,1.597118009,-0.289496528,0,1,1,0,0.227430556,0.541666667,0.297743056,0.487847222,0.790798611,0.557291667,0.375,0.191840278,1,57,33.12138333,toblerone,lachgummi
1,42,2,12,2,20,14,-1,2.024063716,0.513888889,0.318576389,0.436631944,0.614583333,0.077256944,-0.296006944,0.077256944,6,2.588188871,1.554837618,2.979238969,1.897152853,-0.296006944,0,1,1,0,0.421006944,0.606770833,0.414930556,0.222222222,0.386284722,0.486979167,0.604166667,0.625,1,57,33.12138333,snickers,applered
1,43,2,13,2,21,4,1,1.709469013,0.355902778,0.354600694,0.347222222,0.371527778,0.008680556,-0.016927083,0.008680556,5,2.289274738,1.670899627,2.362687289,1.572754489,-0.016927083,4,1,1,0,0.348958333,0.362847222,0.363715278,0.345486111,0.311631944,0.3828125,0.388020833,0.355034722,1,57,33.12138333,strawberries,mikado
1,44,2,14,2,31,27,1,1.478952676,0.473524306,0.234809028,0.381076389,0.238715278,0.092447917,-0.00390625,0.092447917,6,1.762503538,1.938525013,2.29582336,1.929995378,-0.00390625,4,1,1,0,0.493923611,0.453125,0.296875,0.172743056,0.322916667,0.439236111,0.3515625,0.125868056,1,57,33.12138333,muffins,graneochips
1,45,2,15,2,4,2,1,2.310226773,0.347222222,0.371527778,0.268229167,0.604600694,0.078993056,-0.233072917,0.078993056,6,2.362687289,1.572754489,2.6136576,1.422693831,-0.233072917,0,1,1,0,0.311631944,0.3828125,0.388020833,0.355034722,0.308159722,0.228298611,0.590277778,0.618923611,1,57,33.12138333,mikado,salad
1,46,2,16,1,17,9,-1,1.359373938,0.5,0.739583333,0.373697917,0.551649306,0.126302083,0.187934028,0.187934028,8,2.363587413,1.889484089,2.329526044,1.906959218,0.126302083,7,1,1,0,0.375,0.625,0.737847222,0.741319444,0.394097222,0.353298611,0.647569444,0.455729167,1,57,33.12138333,raisins,orange
1,47,2,17,1,8,27,1,1.509857564,0.674045139,0.283420139,0.381076389,0.238715278,0.29296875,0.044704861,0.044704861,5,2.988380871,1.597118009,2.29582336,1.929995378,0.29296875,0,1,1,0,0.790798611,0.557291667,0.375,0.191840278,0.322916667,0.439236111,0.3515625,0.125868056,1,57,33.12138333,lachgummi,graneochips
1,48,2,18,1,18,27,1,2.004212622,0.434027778,0.402777778,0.381076389,0.238715278,0.052951389,0.1640625,0.1640625,8,2.046184391,2.621846471,2.29582336,1.929995378,0.052951389,6,1,1,0,0.40625,0.461805556,0.453993056,0.3515625,0.322916667,0.439236111,0.3515625,0.125868056,1,57,33.12138333,rasberries,graneochips
1,49,2,19,1,8,19,1,1.65695232,0.674045139,0.283420139,0.337239583,0.309027778,0.336805556,-0.025607639,-0.025607639,4,2.988380871,1.597118009,1.996787058,1.904550542,0.336805556,0,1,1,0,0.790798611,0.557291667,0.375,0.191840278,0.310763889,0.363715278,0.373263889,0.244791667,1,57,33.12138333,lachgummi,smarties
1,50,2,20,1,18,1,-1,1.594658987,0.434027778,0.402777778,0.626302083,0.274739583,-0.192274306,0.128038194,0.128038194,7,2.046184391,2.621846471,1.888526933,3.379911822,-0.192274306,1,1,1,0,0.40625,0.461805556,0.453993056,0.3515625,0.701388889,0.551215278,0.365451389,0.184027778,1,57,33.12138333,rasberries,blevita
1,51,2,21,1,22,1,1,1.505278293,0.384548611,0.392795139,0.626302083,0.274739583,-0.241753472,0.118055556,0.118055556,7,2.171847822,1.663582009,1.888526933,3.379911822,-0.241753472,0,1,1,0,0.227430556,0.541666667,0.297743056,0.487847222,0.701388889,0.551215278,0.365451389,0.184027778,1,57,33.12138333,toblerone,blevita
1,52,2,22,1,21,20,-1,1.812381582,0.355902778,0.354600694,0.513888889,0.318576389,-0.157986111,0.036024306,0.036024306,5,2.289274738,1.670899627,2.588188871,1.554837618,-0.157986111,1,1,1,0,0.348958333,0.362847222,0.363715278,0.345486111,0.421006944,0.606770833,0.414930556,0.222222222,1,57,33.12138333,strawberries,snickers
1,53,2,23,2,30,23,-1,1.787115804,0.493055556,0.013020833,0.412326389,0.64453125,0.080729167,-0.631510417,0.080729167,6,2.888347164,2.372276764,1.979420444,2.030724124,-0.631510417,0,1,1,0,0.644965278,0.341145833,0.018229167,0.0078125,0.295138889,0.529513889,0.616319444,0.672743056,1,57,33.12138333,radish,tomatoes
1,54,2,24,2,26,28,1,1.422948409,0.304253472,0.067708333,0.305989583,0.488715278,-0.001736111,-0.421006944,-0.001736111,4,2.270968462,2.837418667,1.754060942,1.996853333,-0.421006944,0,1,1,0,0.271701389,0.336805556,0.078993056,0.056423611,0.282986111,0.328993056,0.591145833,0.386284722,1,57,33.12138333,zucchini,paprikachips
1,55,2,25,2,24,9,1,2.384931556,0.313368056,0.465711806,0.373697917,0.551649306,-0.060329861,-0.0859375,-0.060329861,3,2.347235982,1.929689884,2.329526044,1.906959218,-0.0859375,3,1,1,0,0.300347222,0.326388889,0.416666667,0.514756944,0.394097222,0.353298611,0.647569444,0.455729167,1,57,33.12138333,twix,orange
1,56,2,26,2,9,32,-1,1.2795008,0.373697917,0.551649306,0.500434028,0.761284722,-0.126736111,-0.209635417,-0.126736111,2,2.329526044,1.906959218,1.413638542,1.931255324,-0.209635417,0,1,1,0,0.394097222,0.353298611,0.647569444,0.455729167,0.493055556,0.5078125,0.823784722,0.698784722,1,57,33.12138333,orange,yogurt
1,57,2,27,2,8,32,1,1.966828658,0.674045139,0.283420139,0.500434028,0.761284722,0.173611111,-0.477864583,0.173611111,8,2.988380871,1.597118009,1.413638542,1.931255324,-0.477864583,0,1,1,0,0.790798611,0.557291667,0.375,0.191840278,0.493055556,0.5078125,0.823784722,0.698784722,1,57,33.12138333,lachgummi,yogurt
1,58,3,1,1,6,17,1,2.353138631,0.616753472,0.557725694,0.5,0.739583333,0.116753472,-0.181857639,-0.181857639,1,1.621272178,1.672655502,2.363587413,1.889484089,0.116753472,7,1,1,0,0.671006944,0.5625,0.556423611,0.559027778,0.375,0.625,0.737847222,0.741319444,1,57,33.12138333,mandm,raisins
1,59,3,2,1,31,5,1,2.035565796,0.473524306,0.234809028,0.523003472,0.405815972,-0.049479167,-0.171006944,-0.171006944,1,1.762503538,1.938525013,2.68007936,1.555521138,-0.049479167,4,1,1,0,0.493923611,0.453125,0.296875,0.172743056,0.572048611,0.473958333,0.420138889,0.391493056,1,57,33.12138333,muffins,rizaulait
1,60,3,3,1,9,13,1,1.979377778,0.373697917,0.551649306,0.292534722,0.708333333,0.081163194,-0.156684028,-0.156684028,1,2.329526044,1.906959218,1.580664889,2.304880356,0.081163194,6,1,1,0,0.394097222,0.353298611,0.647569444,0.455729167,0.325520833,0.259548611,0.685763889,0.730902778,1,57,33.12138333,orange,pear
1,61,3,4,1,21,1,1,1.466881422,0.355902778,0.354600694,0.626302083,0.274739583,-0.270399306,0.079861111,0.079861111,6,2.289274738,1.670899627,1.888526933,3.379911822,-0.270399306,0,1,1,0,0.348958333,0.362847222,0.363715278,0.345486111,0.701388889,0.551215278,0.365451389,0.184027778,1,57,33.12138333,strawberries,blevita
1,62,3,5,2,1,12,-1,2.886378667,0.626302083,0.274739583,0.791666667,0.696614583,-0.165364583,-0.421875,-0.165364583,1,1.888526933,3.379911822,3.263822933,2.13839616,-0.421875,0,1,1,0,0.701388889,0.551215278,0.365451389,0.184027778,0.799479167,0.783854167,0.729166667,0.6640625,1,57,33.12138333,blevita,pizza
1,63,3,6,2,2,26,-1,1.405212729,0.268229167,0.604600694,0.304253472,0.067708333,-0.036024306,0.536892361,-0.036024306,4,2.6136576,1.422693831,2.270968462,2.837418667,0.536892361,0,1,1,0,0.308159722,0.228298611,0.590277778,0.618923611,0.271701389,0.336805556,0.078993056,0.056423611,1,57,33.12138333,salad,zucchini
1,64,3,7,2,17,28,1,1.413448533,0.5,0.739583333,0.305989583,0.488715278,0.194010417,0.250868056,0.194010417,8,2.363587413,1.889484089,1.754060942,1.996853333,0.250868056,0,1,1,0,0.375,0.625,0.737847222,0.741319444,0.282986111,0.328993056,0.591145833,0.386284722,1,57,33.12138333,raisins,paprikachips
1,65,3,8,2,24,30,1,2.087412622,0.313368056,0.465711806,0.493055556,0.013020833,-0.1796875,0.452690972,-0.1796875,1,2.347235982,1.929689884,2.888347164,2.372276764,0.452690972,0,1,1,0,0.300347222,0.326388889,0.416666667,0.514756944,0.644965278,0.341145833,0.018229167,0.0078125,1,57,33.12138333,twix,radish
1,66,3,9,2,31,23,1,1.167566507,0.473524306,0.234809028,0.412326389,0.64453125,0.061197917,-0.409722222,0.061197917,6,1.762503538,1.938525013,1.979420444,2.030724124,-0.409722222,0,1,1,0,0.493923611,0.453125,0.296875,0.172743056,0.295138889,0.529513889,0.616319444,0.672743056,1,57,33.12138333,muffins,tomatoes
1,67,3,10,2,31,30,1,1.219192036,0.473524306,0.234809028,0.493055556,0.013020833,-0.01953125,0.221788194,-0.01953125,4,1.762503538,1.938525013,2.888347164,2.372276764,0.221788194,0,1,1,0,0.493923611,0.453125,0.296875,0.172743056,0.644965278,0.341145833,0.018229167,0.0078125,1,57,33.12138333,muffins,radish
1,68,3,11,1,31,8,-1,1.874582187,0.473524306,0.234809028,0.674045139,0.283420139,-0.200520833,-0.048611111,-0.048611111,4,1.762503538,1.938525013,2.988380871,1.597118009,-0.200520833,0,1,1,0,0.493923611,0.453125,0.296875,0.172743056,0.790798611,0.557291667,0.375,0.191840278,1,57,33.12138333,muffins,lachgummi
1,69,3,12,1,17,32,-1,1.83056384,0.5,0.739583333,0.500434028,0.761284722,-0.000434028,-0.021701389,-0.021701389,4,2.363587413,1.889484089,1.413638542,1.931255324,-0.000434028,4,1,1,0,0.375,0.625,0.737847222,0.741319444,0.493055556,0.5078125,0.823784722,0.698784722,1,57,33.12138333,raisins,yogurt
1,70,3,13,1,10,22,-1,1.350471111,0.260850694,0.417534722,0.384548611,0.392795139,-0.123697917,0.024739583,0.024739583,5,1.813897813,2.0965632,2.171847822,1.663582009,-0.123697917,2,1,1,0,0.300347222,0.221354167,0.342013889,0.493055556,0.227430556,0.541666667,0.297743056,0.487847222,1,57,33.12138333,oreo,toblerone
1,71,3,14,1,8,29,1,1.307988764,0.674045139,0.283420139,0.55078125,0.377604167,0.123263889,-0.094184028,-0.094184028,3,2.988380871,1.597118009,2.412995129,2.104331378,0.123263889,7,1,1,0,0.790798611,0.557291667,0.375,0.191840278,0.578993056,0.522569444,0.374131944,0.381076389,1,57,33.12138333,lachgummi,sourcreamchips
1,72,3,15,1,21,28,1,1.573779911,0.355902778,0.354600694,0.305989583,0.488715278,0.049913194,-0.134114583,-0.134114583,2,2.289274738,1.670899627,1.754060942,1.996853333,0.049913194,5,1,1,0,0.348958333,0.362847222,0.363715278,0.345486111,0.282986111,0.328993056,0.591145833,0.386284722,1,57,33.12138333,strawberries,paprikachips
1,73,3,16,2,24,11,1,1.861576249,0.313368056,0.465711806,0.388888889,0.893229167,-0.075520833,-0.427517361,-0.075520833,3,2.347235982,1.929689884,2.06403328,1.730654151,-0.427517361,0,1,1,0,0.300347222,0.326388889,0.416666667,0.514756944,0.388020833,0.389756944,0.879340278,0.907118056,1,57,33.12138333,twix,chocolatechipcookie
1,74,3,17,2,22,30,1,1.373034382,0.384548611,0.392795139,0.493055556,0.013020833,-0.108506944,0.379774306,-0.108506944,2,2.171847822,1.663582009,2.888347164,2.372276764,0.379774306,0,1,1,0,0.227430556,0.541666667,0.297743056,0.487847222,0.644965278,0.341145833,0.018229167,0.0078125,1,57,33.12138333,toblerone,radish
1,75,3,18,2,29,9,1,1.348474027,0.55078125,0.377604167,0.373697917,0.551649306,0.177083333,-0.174045139,0.177083333,8,2.412995129,2.104331378,2.329526044,1.906959218,-0.174045139,1,1,1,0,0.578993056,0.522569444,0.374131944,0.381076389,0.394097222,0.353298611,0.647569444,0.455729167,1,57,33.12138333,sourcreamchips,orange
1,76,3,19,2,1,3,1,2.11115776,0.626302083,0.274739583,0.485243056,0.625,0.141059028,-0.350260417,0.141059028,7,1.888526933,3.379911822,1.822734507,2.121227378,-0.350260417,0,1,1,0,0.701388889,0.551215278,0.365451389,0.184027778,0.463541667,0.506944444,0.663194444,0.586805556,1,57,33.12138333,blevita,petitbeurre
1,77,3,20,2,5,31,-1,1.764461227,0.523003472,0.405815972,0.473524306,0.234809028,0.049479167,0.171006944,0.049479167,5,2.68007936,1.555521138,1.762503538,1.938525013,0.171006944,8,1,1,0,0.572048611,0.473958333,0.420138889,0.391493056,0.493923611,0.453125,0.296875,0.172743056,1,57,33.12138333,rizaulait,muffins
1,78,3,21,1,6,29,-1,2.703106844,0.616753472,0.557725694,0.55078125,0.377604167,0.065972222,0.180121528,0.180121528,8,1.621272178,1.672655502,2.412995129,2.104331378,0.065972222,6,1,1,0,0.671006944,0.5625,0.556423611,0.559027778,0.578993056,0.522569444,0.374131944,0.381076389,1,57,33.12138333,mandm,sourcreamchips
1,79,3,22,1,21,18,-1,1.574512924,0.355902778,0.354600694,0.434027778,0.402777778,-0.078125,-0.048177083,-0.048177083,4,2.289274738,1.670899627,2.046184391,2.621846471,-0.078125,3,1,1,0,0.348958333,0.362847222,0.363715278,0.345486111,0.40625,0.461805556,0.453993056,0.3515625,1,57,33.12138333,strawberries,rasberries
1,80,3,23,1,17,11,-1,2.320211911,0.5,0.739583333,0.388888889,0.893229167,0.111111111,-0.153645833,-0.153645833,1,2.363587413,1.889484089,2.06403328,1.730654151,0.111111111,7,1,1,0,0.375,0.625,0.737847222,0.741319444,0.388020833,0.389756944,0.879340278,0.907118056,1,57,33.12138333,raisins,chocolatechipcookie
1,81,3,24,1,31,15,1,1.164739698,0.473524306,0.234809028,0.1328125,0.081163194,0.340711806,0.153645833,0.153645833,8,1.762503538,1.938525013,2.73741184,1.70495488,0.340711806,0,1,1,0,0.493923611,0.453125,0.296875,0.172743056,0.15625,0.109375,0.145833333,0.016493056,1,57,33.12138333,muffins,pringles
1,82,3,25,1,28,6,1,2.220472889,0.305989583,0.488715278,0.616753472,0.557725694,-0.310763889,-0.069010417,-0.069010417,3,1.754060942,1.996853333,1.621272178,1.672655502,-0.310763889,0,1,1,0,0.282986111,0.328993056,0.591145833,0.386284722,0.671006944,0.5625,0.556423611,0.559027778,1,57,33.12138333,paprikachips,mandm
1,83,3,26,2,32,28,1,2.368749511,0.500434028,0.761284722,0.305989583,0.488715278,0.194444444,0.272569444,0.194444444,8,1.413638542,1.931255324,1.754060942,1.996853333,0.272569444,0,1,1,0,0.493055556,0.5078125,0.823784722,0.698784722,0.282986111,0.328993056,0.591145833,0.386284722,1,57,33.12138333,yogurt,paprikachips
1,84,3,27,2,17,21,-1,2.277552924,0.5,0.739583333,0.355902778,0.354600694,0.144097222,0.384982639,0.144097222,7,2.363587413,1.889484089,2.289274738,1.670899627,0.384982639,0,1,1,0,0.375,0.625,0.737847222,0.741319444,0.348958333,0.362847222,0.363715278,0.345486111,1,57,33.12138333,raisins,strawberries
1,85,3,28,2,14,27,1,1.123849671,0.436631944,0.614583333,0.381076389,0.238715278,0.055555556,0.375868056,0.055555556,6,2.979238969,1.897152853,2.29582336,1.929995378,0.375868056,0,1,1,0,0.386284722,0.486979167,0.604166667,0.625,0.322916667,0.439236111,0.3515625,0.125868056,1,57,33.12138333,applered,graneochips
1,86,3,29,2,32,27,1,0.916873102,0.500434028,0.761284722,0.381076389,0.238715278,0.119357639,0.522569444,0.119357639,7,1.413638542,1.931255324,2.29582336,1.929995378,0.522569444,0,1,1,0,0.493055556,0.5078125,0.823784722,0.698784722,0.322916667,0.439236111,0.3515625,0.125868056,1,57,33.12138333,yogurt,graneochips
1,87,3,30,2,11,7,-1,1.677583076,0.388888889,0.893229167,0.540798611,0.191840278,-0.151909722,0.701388889,-0.151909722,1,2.06403328,1.730654151,1.729693867,1.655938276,0.701388889,0,1,1,0,0.388020833,0.389756944,0.879340278,0.907118056,0.559027778,0.522569444,0.209201389,0.174479167,1,57,33.12138333,chocolatechipcookie,muesli
1,88,4,1,1,9,28,1,1.443392284,0.373697917,0.551649306,0.305989583,0.488715278,0.067708333,0.062934028,0.062934028,6,2.329526044,1.906959218,1.754060942,1.996853333,0.067708333,6,1,1,0,0.394097222,0.353298611,0.647569444,0.455729167,0.282986111,0.328993056,0.591145833,0.386284722,1,57,33.12138333,orange,paprikachips
1,89,4,2,1,13,12,-1,1.362581902,0.292534722,0.708333333,0.791666667,0.696614583,-0.499131944,0.01171875,0.01171875,5,1.580664889,2.304880356,3.263822933,2.13839616,-0.499131944,0,1,1,0,0.325520833,0.259548611,0.685763889,0.730902778,0.799479167,0.783854167,0.729166667,0.6640625,1,57,33.12138333,pear,pizza
1,90,4,3,1,7,29,-1,2.338036622,0.540798611,0.191840278,0.55078125,0.377604167,-0.009982639,-0.185763889,-0.185763889,1,1.729693867,1.655938276,2.412995129,2.104331378,-0.009982639,4,1,1,0,0.559027778,0.522569444,0.209201389,0.174479167,0.578993056,0.522569444,0.374131944,0.381076389,1,57,33.12138333,muesli,sourcreamchips
1,91,4,4,1,22,5,-1,1.929152284,0.384548611,0.392795139,0.523003472,0.405815972,-0.138454861,-0.013020833,-0.013020833,4,2.171847822,1.663582009,2.68007936,1.555521138,-0.138454861,2,1,1,0,0.227430556,0.541666667,0.297743056,0.487847222,0.572048611,0.473958333,0.420138889,0.391493056,1,57,33.12138333,toblerone,rizaulait
1,92,4,5,1,28,14,-1,1.252514133,0.305989583,0.488715278,0.436631944,0.614583333,-0.130642361,-0.125868056,-0.125868056,2,1.754060942,1.996853333,2.979238969,1.897152853,-0.130642361,2,1,1,0,0.282986111,0.328993056,0.591145833,0.386284722,0.386284722,0.486979167,0.604166667,0.625,1,57,33.12138333,paprikachips,applered
1,93,4,6,1,27,21,-1,1.148131271,0.381076389,0.238715278,0.355902778,0.354600694,0.025173611,-0.115885417,-0.115885417,2,2.29582336,1.929995378,2.289274738,1.670899627,0.025173611,5,1,1,0,0.322916667,0.439236111,0.3515625,0.125868056,0.348958333,0.362847222,0.363715278,0.345486111,1,57,33.12138333,graneochips,strawberries
1,94,4,7,1,13,23,1,1.840907947,0.292534722,0.708333333,0.412326389,0.64453125,-0.119791667,0.063802083,0.063802083,6,1.580664889,2.304880356,1.979420444,2.030724124,-0.119791667,2,1,1,0,0.325520833,0.259548611,0.685763889,0.730902778,0.295138889,0.529513889,0.616319444,0.672743056,1,57,33.12138333,pear,tomatoes
1,95,4,8,2,22,9,-1,1.69147392,0.384548611,0.392795139,0.373697917,0.551649306,0.010850694,-0.158854167,0.010850694,5,2.171847822,1.663582009,2.329526044,1.906959218,-0.158854167,1,1,1,0,0.227430556,0.541666667,0.297743056,0.487847222,0.394097222,0.353298611,0.647569444,0.455729167,1,57,33.12138333,toblerone,orange
1,96,4,9,2,31,19,1,0.991712427,0.473524306,0.234809028,0.337239583,0.309027778,0.136284722,-0.07421875,0.136284722,7,1.762503538,1.938525013,1.996787058,1.904550542,-0.07421875,3,1,1,0,0.493923611,0.453125,0.296875,0.172743056,0.310763889,0.363715278,0.373263889,0.244791667,1,57,33.12138333,muffins,smarties
1,97,4,10,2,17,9,-1,1.815139271,0.5,0.739583333,0.373697917,0.551649306,0.126302083,0.187934028,0.126302083,7,2.363587413,1.889484089,2.329526044,1.906959218,0.187934028,8,1,1,0,0.375,0.625,0.737847222,0.741319444,0.394097222,0.353298611,0.647569444,0.455729167,1,57,33.12138333,raisins,orange
1,98,4,11,2,2,14,-1,1.155219342,0.268229167,0.604600694,0.436631944,0.614583333,-0.168402778,-0.009982639,-0.168402778,1,2.6136576,1.422693831,2.979238969,1.897152853,-0.009982639,4,1,1,0,0.308159722,0.228298611,0.590277778,0.618923611,0.386284722,0.486979167,0.604166667,0.625,1,57,33.12138333,salad,applered
1,99,4,12,2,27,20,-1,1.343387591,0.381076389,0.238715278,0.513888889,0.318576389,-0.1328125,-0.079861111,-0.1328125,2,2.29582336,1.929995378,2.588188871,1.554837618,-0.079861111,3,1,1,0,0.322916667,0.439236111,0.3515625,0.125868056,0.421006944,0.606770833,0.414930556,0.222222222,1,57,33.12138333,graneochips,snickers
1,100,4,13,2,21,22,-1,2.505359076,0.355902778,0.354600694,0.384548611,0.392795139,-0.028645833,-0.038194444,-0.028645833,4,2.289274738,1.670899627,2.171847822,1.663582009,-0.038194444,4,1,1,0,0.348958333,0.362847222,0.363715278,0.345486111,0.227430556,0.541666667,0.297743056,0.487847222,1,57,33.12138333,strawberries,toblerone
1,101,4,14,2,27,19,-1,1.442717867,0.381076389,0.238715278,0.337239583,0.309027778,0.043836806,-0.0703125,0.043836806,5,2.29582336,1.929995378,1.996787058,1.904550542,-0.0703125,3,1,1,0,0.322916667,0.439236111,0.3515625,0.125868056,0.310763889,0.363715278,0.373263889,0.244791667,1,57,33.12138333,graneochips,smarties
1,102,4,15,1,18,22,1,1.954518756,0.434027778,0.402777778,0.384548611,0.392795139,0.049479167,0.009982639,0.009982639,5,2.046184391,2.621846471,2.171847822,1.663582009,0.049479167,5,1,1,0,0.40625,0.461805556,0.453993056,0.3515625,0.227430556,0.541666667,0.297743056,0.487847222,1,57,33.12138333,rasberries,toblerone
1,103,4,16,1,21,4,1,2.815792071,0.355902778,0.354600694,0.347222222,0.371527778,0.008680556,-0.016927083,-0.016927083,4,2.289274738,1.670899627,2.362687289,1.572754489,0.008680556,5,1,1,0,0.348958333,0.362847222,0.363715278,0.345486111,0.311631944,0.3828125,0.388020833,0.355034722,1,57,33.12138333,strawberries,mikado
1,104,4,17,1,1,27,1,1.518627556,0.626302083,0.274739583,0.381076389,0.238715278,0.245225694,0.036024306,0.036024306,5,1.888526933,3.379911822,2.29582336,1.929995378,0.245225694,0,1,1,0,0.701388889,0.551215278,0.365451389,0.184027778,0.322916667,0.439236111,0.3515625,0.125868056,1,57,33.12138333,blevita,graneochips
1,105,4,18,1,18,8,-1,0.893412409,0.434027778,0.402777778,0.674045139,0.283420139,-0.240017361,0.119357639,0.119357639,7,2.046184391,2.621846471,2.988380871,1.597118009,-0.240017361,0,1,1,0,0.40625,0.461805556,0.453993056,0.3515625,0.790798611,0.557291667,0.375,0.191840278,1,57,33.12138333,rasberries,lachgummi
1,106,4,19,1,10,9,-1,1.498107449,0.260850694,0.417534722,0.373697917,0.551649306,-0.112847222,-0.134114583,-0.134114583,2,1.813897813,2.0965632,2.329526044,1.906959218,-0.112847222,2,1,1,0,0.300347222,0.221354167,0.342013889,0.493055556,0.394097222,0.353298611,0.647569444,0.455729167,1,57,33.12138333,oreo,orange
1,107,4,20,1,26,27,1,1.292133547,0.304253472,0.067708333,0.381076389,0.238715278,-0.076822917,-0.171006944,-0.171006944,1,2.270968462,2.837418667,2.29582336,1.929995378,-0.076822917,3,1,1,0,0.271701389,0.336805556,0.078993056,0.056423611,0.322916667,0.439236111,0.3515625,0.125868056,1,57,33.12138333,zucchini,graneochips
1,108,4,21,1,24,8,-1,1.31828736,0.313368056,0.465711806,0.674045139,0.283420139,-0.360677083,0.182291667,0.182291667,8,2.347235982,1.929689884,2.988380871,1.597118009,-0.360677083,0,1,1,0,0.300347222,0.326388889,0.416666667,0.514756944,0.790798611,0.557291667,0.375,0.191840278,1,57,33.12138333,twix,lachgummi
1,109,4,22,2,31,13,1,1.713473138,0.473524306,0.234809028,0.292534722,0.708333333,0.180989583,-0.473524306,0.180989583,8,1.762503538,1.938525013,1.580664889,2.304880356,-0.473524306,0,1,1,0,0.493923611,0.453125,0.296875,0.172743056,0.325520833,0.259548611,0.685763889,0.730902778,1,57,33.12138333,muffins,pear
1,110,4,23,2,27,18,-1,0.961310151,0.381076389,0.238715278,0.434027778,0.402777778,-0.052951389,-0.1640625,-0.052951389,3,2.29582336,1.929995378,2.046184391,2.621846471,-0.1640625,1,1,1,0,0.322916667,0.439236111,0.3515625,0.125868056,0.40625,0.461805556,0.453993056,0.3515625,1,57,33.12138333,graneochips,rasberries
1,111,4,24,2,16,15,1,1.316159147,0.329861111,0.737847222,0.1328125,0.081163194,0.197048611,0.656684028,0.197048611,8,1.63076096,1.489164231,2.73741184,1.70495488,0.656684028,0,1,1,0,0.316840278,0.342881944,0.821180556,0.654513889,0.15625,0.109375,0.145833333,0.016493056,1,57,33.12138333,plum,pringles
1,112,4,25,2,23,32,-1,1.493651058,0.412326389,0.64453125,0.500434028,0.761284722,-0.088107639,-0.116753472,-0.088107639,3,1.979420444,2.030724124,1.413638542,1.931255324,-0.116753472,2,1,1,0,0.295138889,0.529513889,0.616319444,0.672743056,0.493055556,0.5078125,0.823784722,0.698784722,1,57,33.12138333,tomatoes,yogurt
1,113,5,1,1,9,16,-1,1.496344462,0.373697917,0.551649306,0.329861111,0.737847222,0.043836806,-0.186197917,-0.186197917,1,2.329526044,1.906959218,1.63076096,1.489164231,0.043836806,5,0,1,0,0.394097222,0.353298611,0.647569444,0.455729167,0.316840278,0.342881944,0.821180556,0.654513889,1,57,33.12138333,orange,plum
1,114,5,2,1,20,24,-1,1.509161529,0.513888889,0.318576389,0.313368056,0.465711806,0.200520833,-0.147135417,-0.147135417,2,2.588188871,1.554837618,2.347235982,1.929689884,0.200520833,0,0,1,0,0.421006944,0.606770833,0.414930556,0.222222222,0.300347222,0.326388889,0.416666667,0.514756944,1,57,33.12138333,snickers,twix
1,115,5,3,1,4,22,-1,0.957989547,0.347222222,0.371527778,0.384548611,0.392795139,-0.037326389,-0.021267361,-0.021267361,4,2.362687289,1.572754489,2.171847822,1.663582009,-0.037326389,4,0,1,0,0.311631944,0.3828125,0.388020833,0.355034722,0.227430556,0.541666667,0.297743056,0.487847222,1,57,33.12138333,mikado,toblerone
1,116,5,4,1,7,4,-1,1.812243627,0.540798611,0.191840278,0.347222222,0.371527778,0.193576389,-0.1796875,-0.1796875,1,1.729693867,1.655938276,2.362687289,1.572754489,0.193576389,8,0,1,0,0.559027778,0.522569444,0.209201389,0.174479167,0.311631944,0.3828125,0.388020833,0.355034722,1,57,33.12138333,muesli,mikado
1,117,5,5,1,6,18,-1,0.901307449,0.616753472,0.557725694,0.434027778,0.402777778,0.182725694,0.154947917,0.154947917,8,1.621272178,1.672655502,2.046184391,2.621846471,0.182725694,8,0,1,0,0.671006944,0.5625,0.556423611,0.559027778,0.40625,0.461805556,0.453993056,0.3515625,1,57,33.12138333,mandm,rasberries
1,118,5,6,1,28,25,1,1.285812338,0.305989583,0.488715278,0.70703125,0.466145833,-0.401041667,0.022569444,0.022569444,5,1.754060942,1.996853333,2.272516978,1.979454578,-0.401041667,0,0,1,0,0.282986111,0.328993056,0.591145833,0.386284722,0.806423611,0.607638889,0.435763889,0.496527778,1,57,33.12138333,paprikachips,wasafibers
1,119,5,7,2,13,14,1,2.821028124,0.292534722,0.708333333,0.436631944,0.614583333,-0.144097222,0.09375,-0.144097222,2,1.580664889,2.304880356,2.979238969,1.897152853,0.09375,6,0,1,0,0.325520833,0.259548611,0.685763889,0.730902778,0.386284722,0.486979167,0.604166667,0.625,1,57,33.12138333,pear,applered
1,120,5,8,2,14,32,-1,1.304502613,0.436631944,0.614583333,0.500434028,0.761284722,-0.063802083,-0.146701389,-0.063802083,3,2.979238969,1.897152853,1.413638542,1.931255324,-0.146701389,2,0,1,0,0.386284722,0.486979167,0.604166667,0.625,0.493055556,0.5078125,0.823784722,0.698784722,1,57,33.12138333,applered,yogurt
1,121,5,9,2,29,1,1,2.81378048,0.55078125,0.377604167,0.626302083,0.274739583,-0.075520833,0.102864583,-0.075520833,3,2.412995129,2.104331378,1.888526933,3.379911822,0.102864583,7,0,1,0,0.578993056,0.522569444,0.374131944,0.381076389,0.701388889,0.551215278,0.365451389,0.184027778,1,57,33.12138333,sourcreamchips,blevita
1,122,5,10,2,30,5,-1,1.304696604,0.493055556,0.013020833,0.523003472,0.405815972,-0.029947917,-0.392795139,-0.029947917,4,2.888347164,2.372276764,2.68007936,1.555521138,-0.392795139,0,0,1,0,0.644965278,0.341145833,0.018229167,0.0078125,0.572048611,0.473958333,0.420138889,0.391493056,1,57,33.12138333,radish,rizaulait
1,123,5,11,2,24,27,1,1.403916231,0.313368056,0.465711806,0.381076389,0.238715278,-0.067708333,0.226996528,-0.067708333,3,2.347235982,1.929689884,2.29582336,1.929995378,0.226996528,0,0,1,0,0.300347222,0.326388889,0.416666667,0.514756944,0.322916667,0.439236111,0.3515625,0.125868056,1,57,33.12138333,twix,graneochips
1,124,5,12,1,19,1,-1,1.290197902,0.337239583,0.309027778,0.626302083,0.274739583,-0.2890625,0.034288194,0.034288194,5,1.996787058,1.904550542,1.888526933,3.379911822,-0.2890625,0,0,1,0,0.310763889,0.363715278,0.373263889,0.244791667,0.701388889,0.551215278,0.365451389,0.184027778,1,57,33.12138333,smarties,blevita
1,125,5,13,1,6,3,-1,1.97014528,0.616753472,0.557725694,0.485243056,0.625,0.131510417,-0.067274306,-0.067274306,3,1.621272178,1.672655502,1.822734507,2.121227378,0.131510417,7,0,1,0,0.671006944,0.5625,0.556423611,0.559027778,0.463541667,0.506944444,0.663194444,0.586805556,1,57,33.12138333,mandm,petitbeurre
1,126,5,14,1,1,10,-1,2.458179982,0.626302083,0.274739583,0.260850694,0.417534722,0.365451389,-0.142795139,-0.142795139,2,1.888526933,3.379911822,1.813897813,2.0965632,0.365451389,0,0,1,0,0.701388889,0.551215278,0.365451389,0.184027778,0.300347222,0.221354167,0.342013889,0.493055556,1,57,33.12138333,blevita,oreo
1,127,5,15,1,27,22,-1,1.744628338,0.381076389,0.238715278,0.384548611,0.392795139,-0.003472222,-0.154079861,-0.154079861,1,2.29582336,1.929995378,2.171847822,1.663582009,-0.003472222,4,0,1,0,0.322916667,0.439236111,0.3515625,0.125868056,0.227430556,0.541666667,0.297743056,0.487847222,1,57,33.12138333,graneochips,toblerone
1,128,5,16,1,18,19,-1,1.492378738,0.434027778,0.402777778,0.337239583,0.309027778,0.096788194,0.09375,0.09375,6,2.046184391,2.621846471,1.996787058,1.904550542,0.096788194,6,0,1,0,0.40625,0.461805556,0.453993056,0.3515625,0.310763889,0.363715278,0.373263889,0.244791667,1,57,33.12138333,rasberries,smarties
1,129,5,17,2,14,23,1,2.189912747,0.436631944,0.614583333,0.412326389,0.64453125,0.024305556,-0.029947917,0.024305556,5,2.979238969,1.897152853,1.979420444,2.030724124,-0.029947917,4,0,1,0,0.386284722,0.486979167,0.604166667,0.625,0.295138889,0.529513889,0.616319444,0.672743056,1,57,33.12138333,applered,tomatoes
1,130,5,18,2,22,16,-1,1.608828871,0.384548611,0.392795139,0.329861111,0.737847222,0.0546875,-0.345052083,0.0546875,6,2.171847822,1.663582009,1.63076096,1.489164231,-0.345052083,0,0,1,0,0.227430556,0.541666667,0.297743056,0.487847222,0.316840278,0.342881944,0.821180556,0.654513889,1,57,33.12138333,toblerone,plum
1,131,5,19,2,21,7,-1,1.777338027,0.355902778,0.354600694,0.540798611,0.191840278,-0.184895833,0.162760417,-0.184895833,1,2.289274738,1.670899627,1.729693867,1.655938276,0.162760417,8,0,1,0,0.348958333,0.362847222,0.363715278,0.345486111,0.559027778,0.522569444,0.209201389,0.174479167,1,57,33.12138333,strawberries,muesli
1,132,5,20,2,1,7,1,2.102644053,0.626302083,0.274739583,0.540798611,0.191840278,0.085503472,0.082899306,0.085503472,6,1.888526933,3.379911822,1.729693867,1.655938276,0.082899306,6,0,1,0,0.701388889,0.551215278,0.365451389,0.184027778,0.559027778,0.522569444,0.209201389,0.174479167,1,57,33.12138333,blevita,muesli
1,133,5,21,2,11,29,-1,1.234375396,0.388888889,0.893229167,0.55078125,0.377604167,-0.161892361,0.515625,-0.161892361,1,2.06403328,1.730654151,2.412995129,2.104331378,0.515625,0,0,1,0,0.388020833,0.389756944,0.879340278,0.907118056,0.578993056,0.522569444,0.374131944,0.381076389,1,57,33.12138333,chocolatechipcookie,sourcreamchips
1,134,5,22,2,6,30,1,0.827493262,0.616753472,0.557725694,0.493055556,0.013020833,0.123697917,0.544704861,0.123697917,7,1.621272178,1.672655502,2.888347164,2.372276764,0.544704861,0,0,1,0,0.671006944,0.5625,0.556423611,0.559027778,0.644965278,0.341145833,0.018229167,0.0078125,1,57,33.12138333,mandm,radish
1,135,5,23,2,21,24,-1,1.221599858,0.355902778,0.354600694,0.313368056,0.465711806,0.042534722,-0.111111111,0.042534722,5,2.289274738,1.670899627,2.347235982,1.929689884,-0.111111111,2,0,1,0,0.348958333,0.362847222,0.363715278,0.345486111,0.300347222,0.326388889,0.416666667,0.514756944,1,57,33.12138333,strawberries,twix
1,136,5,24,1,25,18,-1,1.706313671,0.70703125,0.466145833,0.434027778,0.402777778,0.273003472,0.063368056,0.063368056,6,2.272516978,1.979454578,2.046184391,2.621846471,0.273003472,0,0,1,0,0.806423611,0.607638889,0.435763889,0.496527778,0.40625,0.461805556,0.453993056,0.3515625,1,57,33.12138333,wasafibers,rasberries
1,137,5,25,1,1,25,-1,1.512028444,0.626302083,0.274739583,0.70703125,0.466145833,-0.080729167,-0.19140625,-0.19140625,1,1.888526933,3.379911822,2.272516978,1.979454578,-0.080729167,3,0,1,0,0.701388889,0.551215278,0.365451389,0.184027778,0.806423611,0.607638889,0.435763889,0.496527778,1,57,33.12138333,blevita,wasafibers
1,138,5,26,1,18,29,-1,0.903953636,0.434027778,0.402777778,0.55078125,0.377604167,-0.116753472,0.025173611,0.025173611,5,2.046184391,2.621846471,2.412995129,2.104331378,-0.116753472,2,0,1,0,0.40625,0.461805556,0.453993056,0.3515625,0.578993056,0.522569444,0.374131944,0.381076389,1,57,33.12138333,rasberries,sourcreamchips
1,139,5,27,1,3,28,1,1.631573333,0.485243056,0.625,0.305989583,0.488715278,0.179253472,0.136284722,0.136284722,7,1.822734507,2.121227378,1.754060942,1.996853333,0.179253472,8,0,1,0,0.463541667,0.506944444,0.663194444,0.586805556,0.282986111,0.328993056,0.591145833,0.386284722,1,57,33.12138333,petitbeurre,paprikachips
1,140,5,28,1,12,6,1,2.388936818,0.791666667,0.696614583,0.616753472,0.557725694,0.174913194,0.138888889,0.138888889,7,3.263822933,2.13839616,1.621272178,1.672655502,0.174913194,8,0,1,0,0.799479167,0.783854167,0.729166667,0.6640625,0.671006944,0.5625,0.556423611,0.559027778,1,57,33.12138333,pizza,mandm
1,141,5,29,1,23,24,-1,1.375544604,0.412326389,0.64453125,0.313368056,0.465711806,0.098958333,0.178819444,0.178819444,8,1.979420444,2.030724124,2.347235982,1.929689884,0.098958333,6,0,1,0,0.295138889,0.529513889,0.616319444,0.672743056,0.300347222,0.326388889,0.416666667,0.514756944,1,57,33.12138333,tomatoes,twix
1,142,5,30,2,14,22,1,1.594230613,0.436631944,0.614583333,0.384548611,0.392795139,0.052083333,0.221788194,0.052083333,6,2.979238969,1.897152853,2.171847822,1.663582009,0.221788194,0,0,1,0,0.386284722,0.486979167,0.604166667,0.625,0.227430556,0.541666667,0.297743056,0.487847222,1,57,33.12138333,applered,toblerone
1,143,5,31,2,30,28,-1,2.679568782,0.493055556,0.013020833,0.305989583,0.488715278,0.187065972,-0.475694444,0.187065972,8,2.888347164,2.372276764,1.754060942,1.996853333,-0.475694444,0,0,1,0,0.644965278,0.341145833,0.018229167,0.0078125,0.282986111,0.328993056,0.591145833,0.386284722,1,57,33.12138333,radish,paprikachips
1,144,5,32,2,22,2,1,2.056440604,0.384548611,0.392795139,0.268229167,0.604600694,0.116319444,-0.211805556,0.116319444,7,2.171847822,1.663582009,2.6136576,1.422693831,-0.211805556,0,0,1,0,0.227430556,0.541666667,0.297743056,0.487847222,0.308159722,0.228298611,0.590277778,0.618923611,1,57,33.12138333,toblerone,salad
1,145,5,33,2,24,32,-1,1.404570738,0.313368056,0.465711806,0.500434028,0.761284722,-0.187065972,-0.295572917,-0.187065972,1,2.347235982,1.929689884,1.413638542,1.931255324,-0.295572917,0,0,1,0,0.300347222,0.326388889,0.416666667,0.514756944,0.493055556,0.5078125,0.823784722,0.698784722,1,57,33.12138333,twix,yogurt
1,146,6,1,1,27,29,-1,1.235869867,0.381076389,0.238715278,0.55078125,0.377604167,-0.169704861,-0.138888889,-0.138888889,2,2.29582336,1.929995378,2.412995129,2.104331378,-0.169704861,1,0,1,0,0.322916667,0.439236111,0.3515625,0.125868056,0.578993056,0.522569444,0.374131944,0.381076389,1,57,33.12138333,graneochips,sourcreamchips
1,147,6,2,1,28,4,-1,1.843190898,0.305989583,0.488715278,0.347222222,0.371527778,-0.041232639,0.1171875,0.1171875,7,1.754060942,1.996853333,2.362687289,1.572754489,-0.041232639,4,0,1,0,0.282986111,0.328993056,0.591145833,0.386284722,0.311631944,0.3828125,0.388020833,0.355034722,1,57,33.12138333,paprikachips,mikado
1,148,6,3,1,24,29,-1,1.615727787,0.313368056,0.465711806,0.55078125,0.377604167,-0.237413194,0.088107639,0.088107639,6,2.347235982,1.929689884,2.412995129,2.104331378,-0.237413194,0,0,1,0,0.300347222,0.326388889,0.416666667,0.514756944,0.578993056,0.522569444,0.374131944,0.381076389,1,57,33.12138333,twix,sourcreamchips
1,149,6,4,1,3,24,1,1.571320604,0.485243056,0.625,0.313368056,0.465711806,0.171875,0.159288194,0.159288194,8,1.822734507,2.121227378,2.347235982,1.929689884,0.171875,8,0,1,0,0.463541667,0.506944444,0.663194444,0.586805556,0.300347222,0.326388889,0.416666667,0.514756944,1,57,33.12138333,petitbeurre,twix
1,150,6,5,2,17,32,-1,1.387758933,0.5,0.739583333,0.500434028,0.761284722,-0.000434028,-0.021701389,-0.000434028,4,2.363587413,1.889484089,1.413638542,1.931255324,-0.021701389,4,0,1,0,0.375,0.625,0.737847222,0.741319444,0.493055556,0.5078125,0.823784722,0.698784722,1,57,33.12138333,raisins,yogurt
1,151,6,6,2,22,29,-1,1.224983609,0.384548611,0.392795139,0.55078125,0.377604167,-0.166232639,0.015190972,-0.166232639,1,2.171847822,1.663582009,2.412995129,2.104331378,0.015190972,5,0,1,0,0.227430556,0.541666667,0.297743056,0.487847222,0.578993056,0.522569444,0.374131944,0.381076389,1,57,33.12138333,toblerone,sourcreamchips
1,152,6,7,2,31,26,1,2.023199858,0.473524306,0.234809028,0.304253472,0.067708333,0.169270833,0.167100694,0.169270833,8,1.762503538,1.938525013,2.270968462,2.837418667,0.167100694,8,0,1,0,0.493923611,0.453125,0.296875,0.172743056,0.271701389,0.336805556,0.078993056,0.056423611,1,57,33.12138333,muffins,zucchini
1,153,6,8,2,14,29,-1,1.057211164,0.436631944,0.614583333,0.55078125,0.377604167,-0.114149306,0.236979167,-0.114149306,2,2.979238969,1.897152853,2.412995129,2.104331378,0.236979167,0,0,1,0,0.386284722,0.486979167,0.604166667,0.625,0.578993056,0.522569444,0.374131944,0.381076389,1,57,33.12138333,applered,sourcreamchips
1,154,6,9,2,14,30,1,1.411367538,0.436631944,0.614583333,0.493055556,0.013020833,-0.056423611,0.6015625,-0.056423611,3,2.979238969,1.897152853,2.888347164,2.372276764,0.6015625,0,0,1,0,0.386284722,0.486979167,0.604166667,0.625,0.644965278,0.341145833,0.018229167,0.0078125,1,57,33.12138333,applered,radish
1,155,6,10,2,22,10,-1,2.131461404,0.384548611,0.392795139,0.260850694,0.417534722,0.123697917,-0.024739583,0.123697917,7,2.171847822,1.663582009,1.813897813,2.0965632,-0.024739583,4,0,1,0,0.227430556,0.541666667,0.297743056,0.487847222,0.300347222,0.221354167,0.342013889,0.493055556,1,57,33.12138333,toblerone,oreo
1,156,6,11,1,21,22,1,1.623121636,0.355902778,0.354600694,0.384548611,0.392795139,-0.028645833,-0.038194444,-0.038194444,4,2.289274738,1.670899627,2.171847822,1.663582009,-0.028645833,4,0,1,0,0.348958333,0.362847222,0.363715278,0.345486111,0.227430556,0.541666667,0.297743056,0.487847222,1,57,33.12138333,strawberries,toblerone
1,157,6,12,1,29,22,1,1.8895488,0.55078125,0.377604167,0.384548611,0.392795139,0.166232639,-0.015190972,-0.015190972,4,2.412995129,2.104331378,2.171847822,1.663582009,0.166232639,8,0,1,0,0.578993056,0.522569444,0.374131944,0.381076389,0.227430556,0.541666667,0.297743056,0.487847222,1,57,33.12138333,sourcreamchips,toblerone
1,158,6,13,1,27,31,-1,0.924629618,0.381076389,0.238715278,0.473524306,0.234809028,-0.092447917,0.00390625,0.00390625,5,2.29582336,1.929995378,1.762503538,1.938525013,-0.092447917,3,0,1,0,0.322916667,0.439236111,0.3515625,0.125868056,0.493923611,0.453125,0.296875,0.172743056,1,57,33.12138333,graneochips,muffins
1,159,6,14,1,16,17,-1,1.617855716,0.329861111,0.737847222,0.5,0.739583333,-0.170138889,-0.001736111,-0.001736111,4,1.63076096,1.489164231,2.363587413,1.889484089,-0.170138889,1,0,1,0,0.316840278,0.342881944,0.821180556,0.654513889,0.375,0.625,0.737847222,0.741319444,1,57,33.12138333,plum,raisins
1,160,6,15,2,5,23,1,1.3896448,0.523003472,0.405815972,0.412326389,0.64453125,0.110677083,-0.238715278,0.110677083,7,2.68007936,1.555521138,1.979420444,2.030724124,-0.238715278,0,0,1,0,0.572048611,0.473958333,0.420138889,0.391493056,0.295138889,0.529513889,0.616319444,0.672743056,1,57,33.12138333,rizaulait,tomatoes
1,161,6,16,2,4,16,-1,1.486880711,0.347222222,0.371527778,0.329861111,0.737847222,0.017361111,-0.366319444,0.017361111,5,2.362687289,1.572754489,1.63076096,1.489164231,-0.366319444,0,0,1,0,0.311631944,0.3828125,0.388020833,0.355034722,0.316840278,0.342881944,0.821180556,0.654513889,1,57,33.12138333,mikado,plum
1,162,6,17,2,10,28,1,2.806838329,0.260850694,0.417534722,0.305989583,0.488715278,-0.045138889,-0.071180556,-0.045138889,4,1.813897813,2.0965632,1.754060942,1.996853333,-0.071180556,3,0,1,0,0.300347222,0.221354167,0.342013889,0.493055556,0.282986111,0.328993056,0.591145833,0.386284722,1,57,33.12138333,oreo,paprikachips
1,163,6,18,2,32,16,1,1.381597867,0.500434028,0.761284722,0.329861111,0.737847222,0.170572917,0.0234375,0.170572917,8,1.413638542,1.931255324,1.63076096,1.489164231,0.0234375,5,0,1,0,0.493055556,0.5078125,0.823784722,0.698784722,0.316840278,0.342881944,0.821180556,0.654513889,1,57,33.12138333,yogurt,plum
1,164,6,19,2,2,11,-1,2.558985956,0.268229167,0.604600694,0.388888889,0.893229167,-0.120659722,-0.288628472,-0.120659722,2,2.6136576,1.422693831,2.06403328,1.730654151,-0.288628472,0,0,1,0,0.308159722,0.228298611,0.590277778,0.618923611,0.388020833,0.389756944,0.879340278,0.907118056,1,57,33.12138333,salad,chocolatechipcookie
1,165,6,20,2,8,5,1,0.971741867,0.674045139,0.283420139,0.523003472,0.405815972,0.151041667,-0.122395833,0.151041667,8,2.988380871,1.597118009,2.68007936,1.555521138,-0.122395833,2,0,1,0,0.790798611,0.557291667,0.375,0.191840278,0.572048611,0.473958333,0.420138889,0.391493056,1,57,33.12138333,lachgummi,rizaulait
1,166,6,21,1,27,19,-1,1.731982791,0.381076389,0.238715278,0.337239583,0.309027778,0.043836806,-0.0703125,-0.0703125,3,2.29582336,1.929995378,1.996787058,1.904550542,0.043836806,5,0,1,0,0.322916667,0.439236111,0.3515625,0.125868056,0.310763889,0.363715278,0.373263889,0.244791667,1,57,33.12138333,graneochips,smarties
1,167,6,22,1,4,24,-1,1.471080391,0.347222222,0.371527778,0.313368056,0.465711806,0.033854167,-0.094184028,-0.094184028,3,2.362687289,1.572754489,2.347235982,1.929689884,0.033854167,5,0,1,0,0.311631944,0.3828125,0.388020833,0.355034722,0.300347222,0.326388889,0.416666667,0.514756944,1,57,33.12138333,mikado,twix
1,168,6,23,1,28,18,-1,1.661416107,0.305989583,0.488715278,0.434027778,0.402777778,-0.128038194,0.0859375,0.0859375,6,1.754060942,1.996853333,2.046184391,2.621846471,-0.128038194,2,0,1,0,0.282986111,0.328993056,0.591145833,0.386284722,0.40625,0.461805556,0.453993056,0.3515625,1,57,33.12138333,paprikachips,rasberries
1,169,6,24,1,5,25,-1,2.588141227,0.523003472,0.405815972,0.70703125,0.466145833,-0.184027778,-0.060329861,-0.060329861,3,2.68007936,1.555521138,2.272516978,1.979454578,-0.184027778,1,0,1,0,0.572048611,0.473958333,0.420138889,0.391493056,0.806423611,0.607638889,0.435763889,0.496527778,1,57,33.12138333,rizaulait,wasafibers
1,170,6,25,1,1,29,-1,1.429070222,0.626302083,0.274739583,0.55078125,0.377604167,0.075520833,-0.102864583,-0.102864583,2,1.888526933,3.379911822,2.412995129,2.104331378,0.075520833,6,0,1,0,0.701388889,0.551215278,0.365451389,0.184027778,0.578993056,0.522569444,0.374131944,0.381076389,1,57,33.12138333,blevita,sourcreamchips
1,171,6,26,1,7,26,1,1.97716736,0.540798611,0.191840278,0.304253472,0.067708333,0.236545139,0.124131944,0.124131944,7,1.729693867,1.655938276,2.270968462,2.837418667,0.236545139,0,0,1,0,0.559027778,0.522569444,0.209201389,0.174479167,0.271701389,0.336805556,0.078993056,0.056423611,1,57,33.12138333,muesli,zucchini
1,172,6,27,1,14,10,1,1.24863488,0.436631944,0.614583333,0.260850694,0.417534722,0.17578125,0.197048611,0.197048611,8,2.979238969,1.897152853,1.813897813,2.0965632,0.17578125,8,0,1,0,0.386284722,0.486979167,0.604166667,0.625,0.300347222,0.221354167,0.342013889,0.493055556,1,57,33.12138333,applered,oreo
1,173,6,28,2,27,9,-1,1.962917831,0.381076389,0.238715278,0.373697917,0.551649306,0.007378472,-0.312934028,0.007378472,5,2.29582336,1.929995378,2.329526044,1.906959218,-0.312934028,0,0,1,0,0.322916667,0.439236111,0.3515625,0.125868056,0.394097222,0.353298611,0.647569444,0.455729167,1,57,33.12138333,graneochips,orange
1,174,6,29,2,9,20,1,2.281868231,0.373697917,0.551649306,0.513888889,0.318576389,-0.140190972,0.233072917,-0.140190972,2,2.329526044,1.906959218,2.588188871,1.554837618,0.233072917,0,0,1,0,0.394097222,0.353298611,0.647569444,0.455729167,0.421006944,0.606770833,0.414930556,0.222222222,1,57,33.12138333,orange,snickers
1,175,6,30,2,31,22,1,0.855166293,0.473524306,0.234809028,0.384548611,0.392795139,0.088975694,-0.157986111,0.088975694,6,1.762503538,1.938525013,2.171847822,1.663582009,-0.157986111,1,0,1,0,0.493923611,0.453125,0.296875,0.172743056,0.227430556,0.541666667,0.297743056,0.487847222,1,57,33.12138333,muffins,toblerone
1,176,6,31,2,2,13,-1,1.170798649,0.268229167,0.604600694,0.292534722,0.708333333,-0.024305556,-0.103732639,-0.024305556,4,2.6136576,1.422693831,1.580664889,2.304880356,-0.103732639,2,0,1,0,0.308159722,0.228298611,0.590277778,0.618923611,0.325520833,0.259548611,0.685763889,0.730902778,1,57,33.12138333,salad,pear
1,1,1,1,2,19,28,-1,2.162554695,0.318142361,0.559461806,0.514756944,0.15625,-0.196614583,0.403211806,-0.196614583,1,2.588982228,2.695134356,2.594807074,2.233435894,0.403211806,0,0,0,0,0.359375,0.276909722,0.590277778,0.528645833,0.626736111,0.402777778,0.180555556,0.131944444,1,57,32.8022,cottagecheese,mango
1,2,1,2,2,15,25,1,2.000866701,0.350260417,0.707465278,0.380208333,0.773003472,-0.029947917,-0.065538194,-0.029947917,4,1.961086764,2.465233106,1.928882712,2.208760509,-0.065538194,3,0,0,0,0.332465278,0.368055556,0.793402778,0.621527778,0.348958333,0.411458333,0.747395833,0.798611111,1,57,32.8022,galak,lindt
1,3,1,3,2,32,6,1,1.617673253,0.441840278,0.042100694,0.391493056,0.517361111,0.050347222,-0.475260417,0.050347222,6,2.076566526,2.22030126,2.718148303,2.821370657,-0.475260417,0,0,0,0,0.481770833,0.401909722,0.0546875,0.029513889,0.400173611,0.3828125,0.499131944,0.535590278,1,57,32.8022,meringues,bounty
1,4,1,4,2,28,10,1,1.368341768,0.514756944,0.15625,0.380208333,0.207465278,0.134548611,-0.051215278,0.134548611,7,2.594807074,2.233435894,2.272813912,2.416859259,-0.051215278,3,0,0,0,0.626736111,0.402777778,0.180555556,0.131944444,0.3515625,0.408854167,0.212673611,0.202256944,1,57,32.8022,mango,lemon
1,5,1,5,2,22,9,1,1.311958401,0.439670139,0.647135417,0.303385417,0.299479167,0.136284722,0.34765625,0.136284722,7,2.622142581,2.123720393,4.129151853,1.606676501,0.34765625,0,0,0,0,0.381076389,0.498263889,0.575520833,0.71875,0.428819444,0.177951389,0.223958333,0.375,1,57,32.8022,bueno,chocovo
1,6,1,6,1,22,30,1,1.628469898,0.439670139,0.647135417,0.203993056,0.674479167,0.235677083,-0.02734375,-0.02734375,4,2.622142581,2.123720393,3.23841708,1.619346922,0.235677083,0,0,0,0,0.381076389,0.498263889,0.575520833,0.71875,0.300347222,0.107638889,0.6015625,0.747395833,1,57,32.8022,bueno,mars
1,7,1,7,1,7,8,-1,1.6676242,0.780815972,0.285590278,0.311197917,0.260416667,0.469618056,0.025173611,0.025173611,5,3.127466806,1.954281296,1.948185517,1.887498795,0.469618056,0,0,0,0,0.778645833,0.782986111,0.407986111,0.163194444,0.387152778,0.235243056,0.384548611,0.136284722,1,57,32.8022,broccoli,carrot
1,8,1,8,1,2,13,1,2.051962536,0.391927083,0.421875,0.876736111,0.222222222,-0.484809028,0.199652778,0.199652778,8,2.372858598,1.805807012,2.537386909,2.025059811,-0.484809028,0,0,0,0,0.471354167,0.3125,0.588541667,0.255208333,0.844618056,0.908854167,0.142361111,0.302083333,1,57,32.8022,balisto,darvida
1,9,1,9,1,23,30,1,1.239318483,0.848524306,0.777777778,0.203993056,0.674479167,0.64453125,0.103298611,0.103298611,7,3.282252621,2.522195033,3.23841708,1.619346922,0.64453125,0,0,0,0,0.817708333,0.879340278,0.730034722,0.825520833,0.300347222,0.107638889,0.6015625,0.747395833,1,57,32.8022,kitkat,mars
1,10,1,10,2,18,6,1,1.744025607,0.523871528,0.641493056,0.391493056,0.517361111,0.132378472,0.124131944,0.132378472,7,1.611139714,2.604006708,2.718148303,2.821370657,0.124131944,7,0,0,0,0.543402778,0.504340278,0.598958333,0.684027778,0.400173611,0.3828125,0.499131944,0.535590278,1,57,32.8022,haribo,bounty
1,11,1,11,2,4,30,1,1.601286143,0.37109375,0.584201389,0.203993056,0.674479167,0.167100694,-0.090277778,0.167100694,8,3.283182611,2.051432333,3.23841708,1.619346922,-0.090277778,3,0,0,0,0.400173611,0.342013889,0.449652778,0.71875,0.300347222,0.107638889,0.6015625,0.747395833,1,57,32.8022,benandjerrys,mars
1,12,1,12,2,12,31,1,1.528692021,0.137152778,0.727430556,0.274739583,0.135416667,-0.137586806,0.592013889,-0.137586806,2,1.840297568,4.213354851,1.934162422,2.478933215,0.592013889,0,0,0,0,0.127604167,0.146701389,0.707465278,0.747395833,0.1796875,0.369791667,0.098090278,0.172743056,1,57,32.8022,croissant,melon
1,13,1,13,2,15,27,-1,1.009824415,0.350260417,0.707465278,0.444010417,0.5234375,-0.09375,0.184027778,-0.09375,3,1.961086764,2.465233106,3.392728869,2.834136651,0.184027778,8,0,0,0,0.332465278,0.368055556,0.793402778,0.621527778,0.536458333,0.3515625,0.380208333,0.666666667,1,57,32.8022,galak,maltesers
1,14,1,14,2,15,11,1,1.6834794,0.350260417,0.707465278,0.172309028,0.249131944,0.177951389,0.458333333,0.177951389,8,1.961086764,2.465233106,2.271800011,2.004471319,0.458333333,0,0,0,0,0.332465278,0.368055556,0.793402778,0.621527778,0.209201389,0.135416667,0.234375,0.263888889,1,57,32.8022,galak,corny
1,15,1,15,1,5,2,-1,1.913082694,0.112847222,0.391059028,0.391927083,0.421875,-0.279079861,-0.030815972,-0.030815972,4,1.685426136,3.523201254,2.372858598,1.805807012,-0.279079861,0,0,0,0,0.108506944,0.1171875,0.270833333,0.511284722,0.471354167,0.3125,0.588541667,0.255208333,1,57,32.8022,torino,balisto
1,16,1,16,1,29,32,-1,1.550808689,0.162760417,0.134548611,0.441840278,0.042100694,-0.279079861,0.092447917,0.092447917,6,3.194139797,2.99551133,2.076566526,2.22030126,-0.279079861,0,0,0,0,0.175347222,0.150173611,0.122395833,0.146701389,0.481770833,0.401909722,0.0546875,0.029513889,1,57,32.8022,maoam,meringues
1,17,1,17,1,17,7,1,1.169060217,0.421440972,0.373263889,0.780815972,0.285590278,-0.359375,0.087673611,0.087673611,6,3.16116035,2.059307595,3.127466806,1.954281296,-0.359375,0,0,0,0,0.399305556,0.443576389,0.324652778,0.421875,0.778645833,0.782986111,0.407986111,0.163194444,1,57,32.8022,caramel,broccoli
1,18,1,18,1,15,12,1,1.365368758,0.350260417,0.707465278,0.137152778,0.727430556,0.213107639,-0.019965278,-0.019965278,4,1.961086764,2.465233106,1.840297568,4.213354851,0.213107639,0,0,0,0,0.332465278,0.368055556,0.793402778,0.621527778,0.127604167,0.146701389,0.707465278,0.747395833,1,57,32.8022,galak,croissant
1,19,1,19,2,18,32,-1,2.331849294,0.523871528,0.641493056,0.441840278,0.042100694,0.08203125,0.599392361,0.08203125,6,1.611139714,2.604006708,2.076566526,2.22030126,0.599392361,0,0,0,0,0.543402778,0.504340278,0.598958333,0.684027778,0.481770833,0.401909722,0.0546875,0.029513889,1,57,32.8022,haribo,meringues
1,20,1,20,2,27,25,1,1.337467918,0.444010417,0.5234375,0.380208333,0.773003472,0.063802083,-0.249565972,0.063802083,6,3.392728869,2.834136651,1.928882712,2.208760509,-0.249565972,0,0,0,0,0.536458333,0.3515625,0.380208333,0.666666667,0.348958333,0.411458333,0.747395833,0.798611111,1,57,32.8022,maltesers,lindt
1,21,1,21,2,20,26,-1,1.241271477,0.271701389,0.515625,0.367621528,0.696614583,-0.095920139,-0.180989583,-0.095920139,3,1.426346466,2.846805365,2.492345324,2.211645626,-0.180989583,1,0,0,0,0.332465278,0.2109375,0.666666667,0.364583333,0.603298611,0.131944444,0.753472222,0.639756944,1,57,32.8022,cornflakes,magnum
1,22,1,22,2,17,10,-1,1.712645447,0.421440972,0.373263889,0.380208333,0.207465278,0.041232639,0.165798611,0.041232639,5,3.16116035,2.059307595,2.272813912,2.416859259,0.165798611,8,0,0,0,0.399305556,0.443576389,0.324652778,0.421875,0.3515625,0.408854167,0.212673611,0.202256944,1,57,32.8022,caramel,lemon
1,23,1,23,1,17,1,1,2.059370315,0.421440972,0.373263889,0.101996528,0.296875,0.319444444,0.076388889,0.076388889,6,3.16116035,2.059307595,2.417928911,2.797818826,0.319444444,0,0,0,0,0.399305556,0.443576389,0.324652778,0.421875,0.09375,0.110243056,0.442708333,0.151041667,1,57,32.8022,caramel,pineapple
1,24,1,24,1,10,13,-1,1.279181905,0.380208333,0.207465278,0.876736111,0.222222222,-0.496527778,-0.014756944,-0.014756944,4,2.272813912,2.416859259,2.537386909,2.025059811,-0.496527778,0,0,0,0,0.3515625,0.408854167,0.212673611,0.202256944,0.844618056,0.908854167,0.142361111,0.302083333,1,57,32.8022,lemon,darvida
1,25,1,25,1,19,24,1,1.029775042,0.318142361,0.559461806,0.402777778,0.473958333,-0.084635417,0.085503472,0.085503472,6,2.588982228,2.695134356,2.30738397,2.623006864,-0.084635417,3,0,0,0,0.359375,0.276909722,0.590277778,0.528645833,0.3828125,0.422743056,0.631944444,0.315972222,1,57,32.8022,cottagecheese,kiwi
1,26,1,26,1,13,28,-1,2.155775538,0.876736111,0.222222222,0.514756944,0.15625,0.361979167,0.065972222,0.065972222,6,2.537386909,2.025059811,2.594807074,2.233435894,0.361979167,0,0,0,0,0.844618056,0.908854167,0.142361111,0.302083333,0.626736111,0.402777778,0.180555556,0.131944444,1,57,32.8022,darvida,mango
1,27,1,27,1,7,24,-1,1.170436073,0.780815972,0.285590278,0.402777778,0.473958333,0.378038194,-0.188368056,-0.188368056,1,3.127466806,1.954281296,2.30738397,2.623006864,0.378038194,0,0,0,0,0.778645833,0.782986111,0.407986111,0.163194444,0.3828125,0.422743056,0.631944444,0.315972222,1,57,32.8022,broccoli,kiwi
1,28,2,1,2,20,29,1,1.748023469,0.271701389,0.515625,0.162760417,0.134548611,0.108940972,0.381076389,0.108940972,7,1.426346466,2.846805365,3.194139797,2.99551133,0.381076389,0,0,0,0,0.332465278,0.2109375,0.666666667,0.364583333,0.175347222,0.150173611,0.122395833,0.146701389,1,57,32.8022,cornflakes,maoam
1,29,2,2,2,19,29,1,1.596048104,0.318142361,0.559461806,0.162760417,0.134548611,0.155381944,0.424913194,0.155381944,8,2.588982228,2.695134356,3.194139797,2.99551133,0.424913194,0,0,0,0,0.359375,0.276909722,0.590277778,0.528645833,0.175347222,0.150173611,0.122395833,0.146701389,1,57,32.8022,cottagecheese,maoam
1,30,2,3,2,11,4,-1,1.030162455,0.172309028,0.249131944,0.37109375,0.584201389,-0.198784722,-0.335069444,-0.198784722,1,2.271800011,2.004471319,3.283182611,2.051432333,-0.335069444,0,0,0,0,0.209201389,0.135416667,0.234375,0.263888889,0.400173611,0.342013889,0.449652778,0.71875,1,57,32.8022,corny,benandjerrys
1,31,2,4,2,31,6,-1,1.454441581,0.274739583,0.135416667,0.391493056,0.517361111,-0.116753472,-0.381944444,-0.116753472,2,1.934162422,2.478933215,2.718148303,2.821370657,-0.381944444,0,0,0,0,0.1796875,0.369791667,0.098090278,0.172743056,0.400173611,0.3828125,0.499131944,0.535590278,1,57,32.8022,melon,bounty
1,32,2,5,2,10,3,-1,1.990502695,0.380208333,0.207465278,0.251736111,0.521701389,0.128472222,-0.314236111,0.128472222,7,2.272813912,2.416859259,3.178366375,2.167275187,-0.314236111,0,0,0,0,0.3515625,0.408854167,0.212673611,0.202256944,0.335069444,0.168402778,0.65625,0.387152778,1,57,32.8022,lemon,banana
1,33,2,6,2,24,4,-1,1.103607064,0.402777778,0.473958333,0.37109375,0.584201389,0.031684028,-0.110243056,0.031684028,5,2.30738397,2.623006864,3.283182611,2.051432333,-0.110243056,2,0,0,0,0.3828125,0.422743056,0.631944444,0.315972222,0.400173611,0.342013889,0.449652778,0.71875,1,57,32.8022,kiwi,benandjerrys
1,34,2,7,1,27,15,1,1.849139656,0.444010417,0.5234375,0.350260417,0.707465278,0.09375,-0.184027778,-0.184027778,1,3.392728869,2.834136651,1.961086764,2.465233106,0.09375,6,0,0,0,0.536458333,0.3515625,0.380208333,0.666666667,0.332465278,0.368055556,0.793402778,0.621527778,1,57,32.8022,maltesers,galak
1,35,2,8,1,20,22,-1,1.471377384,0.271701389,0.515625,0.439670139,0.647135417,-0.16796875,-0.131510417,-0.131510417,2,1.426346466,2.846805365,2.622142581,2.123720393,-0.16796875,1,0,0,0,0.332465278,0.2109375,0.666666667,0.364583333,0.381076389,0.498263889,0.575520833,0.71875,1,57,32.8022,cornflakes,bueno
1,36,2,9,1,5,24,-1,0.944353343,0.112847222,0.391059028,0.402777778,0.473958333,-0.289930556,-0.082899306,-0.082899306,3,1.685426136,3.523201254,2.30738397,2.623006864,-0.289930556,0,0,0,0,0.108506944,0.1171875,0.270833333,0.511284722,0.3828125,0.422743056,0.631944444,0.315972222,1,57,32.8022,torino,kiwi
1,37,2,10,1,3,22,-1,1.579021848,0.251736111,0.521701389,0.439670139,0.647135417,-0.187934028,-0.125434028,-0.125434028,2,3.178366375,2.167275187,2.622142581,2.123720393,-0.187934028,1,0,0,0,0.335069444,0.168402778,0.65625,0.387152778,0.381076389,0.498263889,0.575520833,0.71875,1,57,32.8022,banana,bueno
1,38,2,11,1,20,17,1,1.587359758,0.271701389,0.515625,0.421440972,0.373263889,-0.149739583,0.142361111,0.142361111,7,1.426346466,2.846805365,3.16116035,2.059307595,-0.149739583,2,0,0,0,0.332465278,0.2109375,0.666666667,0.364583333,0.399305556,0.443576389,0.324652778,0.421875,1,57,32.8022,cornflakes,caramel
1,39,2,12,1,31,10,-1,1.577650543,0.274739583,0.135416667,0.380208333,0.207465278,-0.10546875,-0.072048611,-0.072048611,3,1.934162422,2.478933215,2.272813912,2.416859259,-0.10546875,2,0,0,0,0.1796875,0.369791667,0.098090278,0.172743056,0.3515625,0.408854167,0.212673611,0.202256944,1,57,32.8022,melon,lemon
1,40,2,13,1,12,4,-1,2.345843375,0.137152778,0.727430556,0.37109375,0.584201389,-0.233940972,0.143229167,0.143229167,7,1.840297568,4.213354851,3.283182611,2.051432333,-0.233940972,0,0,0,0,0.127604167,0.146701389,0.707465278,0.747395833,0.400173611,0.342013889,0.449652778,0.71875,1,57,32.8022,croissant,benandjerrys
1,41,2,14,2,26,6,1,1.96346685,0.367621528,0.696614583,0.391493056,0.517361111,-0.023871528,0.179253472,-0.023871528,4,2.492345324,2.211645626,2.718148303,2.821370657,0.179253472,8,0,0,0,0.603298611,0.131944444,0.753472222,0.639756944,0.400173611,0.3828125,0.499131944,0.535590278,1,57,32.8022,magnum,bounty
1,42,2,15,2,27,4,1,1.477278177,0.444010417,0.5234375,0.37109375,0.584201389,0.072916667,-0.060763889,0.072916667,6,3.392728869,2.834136651,3.283182611,2.051432333,-0.060763889,3,0,0,0,0.536458333,0.3515625,0.380208333,0.666666667,0.400173611,0.342013889,0.449652778,0.71875,1,57,32.8022,maltesers,benandjerrys
1,43,2,16,2,4,10,-1,2.084894623,0.37109375,0.584201389,0.380208333,0.207465278,-0.009114583,0.376736111,-0.009114583,4,3.283182611,2.051432333,2.272813912,2.416859259,0.376736111,0,0,0,0,0.400173611,0.342013889,0.449652778,0.71875,0.3515625,0.408854167,0.212673611,0.202256944,1,57,32.8022,benandjerrys,lemon
1,44,2,17,2,14,11,-1,1.915606567,0.101128472,0.663628472,0.172309028,0.249131944,-0.071180556,0.414496528,-0.071180556,3,2.641409119,2.002170309,2.271800011,2.004471319,0.414496528,0,0,0,0,0.094618056,0.107638889,0.750868056,0.576388889,0.209201389,0.135416667,0.234375,0.263888889,1,57,32.8022,duplo,corny
1,45,2,18,2,31,27,-1,1.118388772,0.274739583,0.135416667,0.444010417,0.5234375,-0.169270833,-0.388020833,-0.169270833,1,1.934162422,2.478933215,3.392728869,2.834136651,-0.388020833,0,0,0,0,0.1796875,0.369791667,0.098090278,0.172743056,0.536458333,0.3515625,0.380208333,0.666666667,1,57,32.8022,melon,maltesers
1,46,2,19,2,32,19,1,2.382092081,0.441840278,0.042100694,0.318142361,0.559461806,0.123697917,-0.517361111,0.123697917,7,2.076566526,2.22030126,2.588982228,2.695134356,-0.517361111,0,0,0,0,0.481770833,0.401909722,0.0546875,0.029513889,0.359375,0.276909722,0.590277778,0.528645833,1,57,32.8022,meringues,cottagecheese
1,47,2,20,1,13,7,1,2.52239329,0.876736111,0.222222222,0.780815972,0.285590278,0.095920139,-0.063368056,-0.063368056,3,2.537386909,2.025059811,3.127466806,1.954281296,0.095920139,6,0,0,0,0.844618056,0.908854167,0.142361111,0.302083333,0.778645833,0.782986111,0.407986111,0.163194444,1,57,32.8022,darvida,broccoli
1,48,2,21,1,9,5,-1,1.531731591,0.303385417,0.299479167,0.112847222,0.391059028,0.190538194,-0.091579861,-0.091579861,3,4.129151853,1.606676501,1.685426136,3.523201254,0.190538194,8,0,0,0,0.428819444,0.177951389,0.223958333,0.375,0.108506944,0.1171875,0.270833333,0.511284722,1,57,32.8022,chocovo,torino
1,49,2,22,1,6,22,-1,1.991983227,0.391493056,0.517361111,0.439670139,0.647135417,-0.048177083,-0.129774306,-0.129774306,2,2.718148303,2.821370657,2.622142581,2.123720393,-0.048177083,4,0,0,0,0.400173611,0.3828125,0.499131944,0.535590278,0.381076389,0.498263889,0.575520833,0.71875,1,57,32.8022,bounty,bueno
1,50,2,23,1,2,19,-1,2.038507761,0.391927083,0.421875,0.318142361,0.559461806,0.073784722,-0.137586806,-0.137586806,2,2.372858598,1.805807012,2.588982228,2.695134356,0.073784722,6,0,0,0,0.471354167,0.3125,0.588541667,0.255208333,0.359375,0.276909722,0.590277778,0.528645833,1,57,32.8022,balisto,cottagecheese
1,51,2,24,1,19,20,1,2.678964703,0.318142361,0.559461806,0.271701389,0.515625,0.046440972,0.043836806,0.043836806,5,2.588982228,2.695134356,1.426346466,2.846805365,0.046440972,5,0,0,0,0.359375,0.276909722,0.590277778,0.528645833,0.332465278,0.2109375,0.666666667,0.364583333,1,57,32.8022,cottagecheese,cornflakes
1,52,2,25,1,13,9,1,1.867333271,0.876736111,0.222222222,0.303385417,0.299479167,0.573350694,-0.077256944,-0.077256944,3,2.537386909,2.025059811,4.129151853,1.606676501,0.573350694,0,0,0,0,0.844618056,0.908854167,0.142361111,0.302083333,0.428819444,0.177951389,0.223958333,0.375,1,57,32.8022,darvida,chocovo
1,53,2,26,1,22,12,1,2.029257638,0.439670139,0.647135417,0.137152778,0.727430556,0.302517361,-0.080295139,-0.080295139,3,2.622142581,2.123720393,1.840297568,4.213354851,0.302517361,0,0,0,0,0.381076389,0.498263889,0.575520833,0.71875,0.127604167,0.146701389,0.707465278,0.747395833,1,57,32.8022,bueno,croissant
1,54,2,27,2,29,31,-1,1.996630475,0.162760417,0.134548611,0.274739583,0.135416667,-0.111979167,-0.000868056,-0.111979167,2,3.194139797,2.99551133,1.934162422,2.478933215,-0.000868056,4,0,0,0,0.175347222,0.150173611,0.122395833,0.146701389,0.1796875,0.369791667,0.098090278,0.172743056,1,57,32.8022,maoam,melon
1,55,2,28,2,16,10,1,1.653315239,0.571614583,0.682725694,0.380208333,0.207465278,0.19140625,0.475260417,0.19140625,8,3.092844979,2.346799961,2.272813912,2.416859259,0.475260417,0,0,0,0,0.518229167,0.625,0.605902778,0.759548611,0.3515625,0.408854167,0.212673611,0.202256944,1,57,32.8022,applegreen,lemon
1,56,2,29,2,3,19,1,2.33478817,0.251736111,0.521701389,0.318142361,0.559461806,-0.06640625,-0.037760417,-0.06640625,3,3.178366375,2.167275187,2.588982228,2.695134356,-0.037760417,4,0,0,0,0.335069444,0.168402778,0.65625,0.387152778,0.359375,0.276909722,0.590277778,0.528645833,1,57,32.8022,banana,cottagecheese
1,57,2,30,2,3,27,-1,0.978442833,0.251736111,0.521701389,0.444010417,0.5234375,-0.192274306,-0.001736111,-0.192274306,1,3.178366375,2.167275187,3.392728869,2.834136651,-0.001736111,4,0,0,0,0.335069444,0.168402778,0.65625,0.387152778,0.536458333,0.3515625,0.380208333,0.666666667,1,57,32.8022,banana,maltesers
1,58,3,1,1,3,30,-1,3.109736266,0.251736111,0.521701389,0.203993056,0.674479167,0.047743056,-0.152777778,-0.152777778,1,3.178366375,2.167275187,3.23841708,1.619346922,0.047743056,5,0,0,0,0.335069444,0.168402778,0.65625,0.387152778,0.300347222,0.107638889,0.6015625,0.747395833,1,57,32.8022,banana,mars
1,59,3,2,1,3,15,-1,1.500347733,0.251736111,0.521701389,0.350260417,0.707465278,-0.098524306,-0.185763889,-0.185763889,1,3.178366375,2.167275187,1.961086764,2.465233106,-0.098524306,3,0,0,0,0.335069444,0.168402778,0.65625,0.387152778,0.332465278,0.368055556,0.793402778,0.621527778,1,57,32.8022,banana,galak
1,60,3,3,1,26,6,1,1.698157286,0.367621528,0.696614583,0.391493056,0.517361111,-0.023871528,0.179253472,0.179253472,8,2.492345324,2.211645626,2.718148303,2.821370657,-0.023871528,4,0,0,0,0.603298611,0.131944444,0.753472222,0.639756944,0.400173611,0.3828125,0.499131944,0.535590278,1,57,32.8022,magnum,bounty
1,61,3,4,1,25,4,-1,2.021187105,0.380208333,0.773003472,0.37109375,0.584201389,0.009114583,0.188802083,0.188802083,8,1.928882712,2.208760509,3.283182611,2.051432333,0.009114583,5,0,0,0,0.348958333,0.411458333,0.747395833,0.798611111,0.400173611,0.342013889,0.449652778,0.71875,1,57,32.8022,lindt,benandjerrys
1,62,3,5,1,13,32,1,1.278897176,0.876736111,0.222222222,0.441840278,0.042100694,0.434895833,0.180121528,0.180121528,8,2.537386909,2.025059811,2.076566526,2.22030126,0.434895833,0,0,0,0,0.844618056,0.908854167,0.142361111,0.302083333,0.481770833,0.401909722,0.0546875,0.029513889,1,57,32.8022,darvida,meringues
1,63,3,6,1,16,12,-1,1.985638416,0.571614583,0.682725694,0.137152778,0.727430556,0.434461806,-0.044704861,-0.044704861,4,3.092844979,2.346799961,1.840297568,4.213354851,0.434461806,0,0,0,0,0.518229167,0.625,0.605902778,0.759548611,0.127604167,0.146701389,0.707465278,0.747395833,1,57,32.8022,applegreen,croissant
1,64,3,7,2,3,12,1,2.217430224,0.251736111,0.521701389,0.137152778,0.727430556,0.114583333,-0.205729167,0.114583333,7,3.178366375,2.167275187,1.840297568,4.213354851,-0.205729167,0,0,0,0,0.335069444,0.168402778,0.65625,0.387152778,0.127604167,0.146701389,0.707465278,0.747395833,1,57,32.8022,banana,croissant
1,65,3,8,2,29,3,-1,1.442002839,0.162760417,0.134548611,0.251736111,0.521701389,-0.088975694,-0.387152778,-0.088975694,3,3.194139797,2.99551133,3.178366375,2.167275187,-0.387152778,0,0,0,0,0.175347222,0.150173611,0.122395833,0.146701389,0.335069444,0.168402778,0.65625,0.387152778,1,57,32.8022,maoam,banana
1,66,3,9,2,4,15,1,1.753893827,0.37109375,0.584201389,0.350260417,0.707465278,0.020833333,-0.123263889,0.020833333,5,3.283182611,2.051432333,1.961086764,2.465233106,-0.123263889,2,0,0,0,0.400173611,0.342013889,0.449652778,0.71875,0.332465278,0.368055556,0.793402778,0.621527778,1,57,32.8022,benandjerrys,galak
1,67,3,10,2,15,31,1,1.553132313,0.350260417,0.707465278,0.274739583,0.135416667,0.075520833,0.572048611,0.075520833,6,1.961086764,2.465233106,1.934162422,2.478933215,0.572048611,0,0,0,0,0.332465278,0.368055556,0.793402778,0.621527778,0.1796875,0.369791667,0.098090278,0.172743056,1,57,32.8022,galak,melon
1,68,3,11,2,32,16,-1,1.449288591,0.441840278,0.042100694,0.571614583,0.682725694,-0.129774306,-0.640625,-0.129774306,2,2.076566526,2.22030126,3.092844979,2.346799961,-0.640625,0,0,0,0,0.481770833,0.401909722,0.0546875,0.029513889,0.518229167,0.625,0.605902778,0.759548611,1,57,32.8022,meringues,applegreen
1,69,3,12,2,2,15,1,1.783911215,0.391927083,0.421875,0.350260417,0.707465278,0.041666667,-0.285590278,0.041666667,5,2.372858598,1.805807012,1.961086764,2.465233106,-0.285590278,0,0,0,0,0.471354167,0.3125,0.588541667,0.255208333,0.332465278,0.368055556,0.793402778,0.621527778,1,57,32.8022,balisto,galak
1,70,3,13,2,30,21,-1,1.22567569,0.203993056,0.674479167,0.268229167,0.727864583,-0.064236111,-0.053385417,-0.064236111,3,3.23841708,1.619346922,1.969753492,1.729109215,-0.053385417,3,0,0,0,0.300347222,0.107638889,0.6015625,0.747395833,0.383680556,0.152777778,0.616319444,0.839409722,1,57,32.8022,mars,frosties
1,71,3,14,1,21,16,1,1.675492209,0.268229167,0.727864583,0.571614583,0.682725694,-0.303385417,0.045138889,0.045138889,5,1.969753492,1.729109215,3.092844979,2.346799961,-0.303385417,0,0,0,0,0.383680556,0.152777778,0.616319444,0.839409722,0.518229167,0.625,0.605902778,0.759548611,1,57,32.8022,frosties,applegreen
1,72,3,15,1,25,12,1,1.737639552,0.380208333,0.773003472,0.137152778,0.727430556,0.243055556,0.045572917,0.045572917,5,1.928882712,2.208760509,1.840297568,4.213354851,0.243055556,0,0,0,0,0.348958333,0.411458333,0.747395833,0.798611111,0.127604167,0.146701389,0.707465278,0.747395833,1,57,32.8022,lindt,croissant
1,73,3,16,1,13,31,1,2.01484457,0.876736111,0.222222222,0.274739583,0.135416667,0.601996528,0.086805556,0.086805556,6,2.537386909,2.025059811,1.934162422,2.478933215,0.601996528,0,0,0,0,0.844618056,0.908854167,0.142361111,0.302083333,0.1796875,0.369791667,0.098090278,0.172743056,1,57,32.8022,darvida,melon
1,74,3,17,1,27,5,1,1.685825211,0.444010417,0.5234375,0.112847222,0.391059028,0.331163194,0.132378472,0.132378472,7,3.392728869,2.834136651,1.685426136,3.523201254,0.331163194,0,0,0,0,0.536458333,0.3515625,0.380208333,0.666666667,0.108506944,0.1171875,0.270833333,0.511284722,1,57,32.8022,maltesers,torino
1,75,3,18,1,8,17,1,2.084352473,0.311197917,0.260416667,0.421440972,0.373263889,-0.110243056,-0.112847222,-0.112847222,2,1.948185517,1.887498795,3.16116035,2.059307595,-0.110243056,2,0,0,0,0.387152778,0.235243056,0.384548611,0.136284722,0.399305556,0.443576389,0.324652778,0.421875,1,57,32.8022,carrot,caramel
1,76,3,19,1,26,30,1,1.705730326,0.367621528,0.696614583,0.203993056,0.674479167,0.163628472,0.022135417,0.022135417,5,2.492345324,2.211645626,3.23841708,1.619346922,0.163628472,8,0,0,0,0.603298611,0.131944444,0.753472222,0.639756944,0.300347222,0.107638889,0.6015625,0.747395833,1,57,32.8022,magnum,mars
1,77,3,20,2,24,6,-1,2.282431679,0.402777778,0.473958333,0.391493056,0.517361111,0.011284722,-0.043402778,0.011284722,5,2.30738397,2.623006864,2.718148303,2.821370657,-0.043402778,4,0,0,0,0.3828125,0.422743056,0.631944444,0.315972222,0.400173611,0.3828125,0.499131944,0.535590278,1,57,32.8022,kiwi,bounty
1,78,3,21,2,31,14,1,1.283095002,0.274739583,0.135416667,0.101128472,0.663628472,0.173611111,-0.528211806,0.173611111,8,1.934162422,2.478933215,2.641409119,2.002170309,-0.528211806,0,0,0,0,0.1796875,0.369791667,0.098090278,0.172743056,0.094618056,0.107638889,0.750868056,0.576388889,1,57,32.8022,melon,duplo
1,79,3,22,2,14,21,-1,2.478838353,0.101128472,0.663628472,0.268229167,0.727864583,-0.167100694,-0.064236111,-0.167100694,1,2.641409119,2.002170309,1.969753492,1.729109215,-0.064236111,3,0,0,0,0.094618056,0.107638889,0.750868056,0.576388889,0.383680556,0.152777778,0.616319444,0.839409722,1,57,32.8022,duplo,frosties
1,80,3,23,2,21,9,1,1.08196684,0.268229167,0.727864583,0.303385417,0.299479167,-0.03515625,0.428385417,-0.03515625,4,1.969753492,1.729109215,4.129151853,1.606676501,0.428385417,0,0,0,0,0.383680556,0.152777778,0.616319444,0.839409722,0.428819444,0.177951389,0.223958333,0.375,1,57,32.8022,frosties,chocovo
1,81,3,24,2,1,3,-1,1.762972145,0.101996528,0.296875,0.251736111,0.521701389,-0.149739583,-0.224826389,-0.149739583,2,2.417928911,2.797818826,3.178366375,2.167275187,-0.224826389,0,0,0,0,0.09375,0.110243056,0.442708333,0.151041667,0.335069444,0.168402778,0.65625,0.387152778,1,57,32.8022,pineapple,banana
1,82,4,1,1,15,20,-1,2.717197691,0.350260417,0.707465278,0.271701389,0.515625,0.078559028,0.191840278,0.191840278,8,1.961086764,2.465233106,1.426346466,2.846805365,0.078559028,6,0,0,0,0.332465278,0.368055556,0.793402778,0.621527778,0.332465278,0.2109375,0.666666667,0.364583333,1,57,32.8022,galak,cornflakes
1,83,4,2,1,28,1,-1,2.103074301,0.514756944,0.15625,0.101996528,0.296875,0.412760417,-0.140625,-0.140625,2,2.594807074,2.233435894,2.417928911,2.797818826,0.412760417,0,0,0,0,0.626736111,0.402777778,0.180555556,0.131944444,0.09375,0.110243056,0.442708333,0.151041667,1,57,32.8022,mango,pineapple
1,84,4,3,1,15,22,-1,2.181891491,0.350260417,0.707465278,0.439670139,0.647135417,-0.089409722,0.060329861,0.060329861,6,1.961086764,2.465233106,2.622142581,2.123720393,-0.089409722,3,0,0,0,0.332465278,0.368055556,0.793402778,0.621527778,0.381076389,0.498263889,0.575520833,0.71875,1,57,32.8022,galak,bueno
1,85,4,4,1,22,16,1,1.290569056,0.439670139,0.647135417,0.571614583,0.682725694,-0.131944444,-0.035590278,-0.035590278,4,2.622142581,2.123720393,3.092844979,2.346799961,-0.131944444,2,0,0,0,0.381076389,0.498263889,0.575520833,0.71875,0.518229167,0.625,0.605902778,0.759548611,1,57,32.8022,bueno,applegreen
1,86,4,5,1,5,13,-1,1.05585999,0.112847222,0.391059028,0.876736111,0.222222222,-0.763888889,0.168836806,0.168836806,8,1.685426136,3.523201254,2.537386909,2.025059811,-0.763888889,0,0,0,0,0.108506944,0.1171875,0.270833333,0.511284722,0.844618056,0.908854167,0.142361111,0.302083333,1,57,32.8022,torino,darvida
1,87,4,6,1,27,30,-1,1.844709439,0.444010417,0.5234375,0.203993056,0.674479167,0.240017361,-0.151041667,-0.151041667,1,3.392728869,2.834136651,3.23841708,1.619346922,0.240017361,0,0,0,0,0.536458333,0.3515625,0.380208333,0.666666667,0.300347222,0.107638889,0.6015625,0.747395833,1,57,32.8022,maltesers,mars
1,88,4,7,1,14,18,-1,1.741077059,0.101128472,0.663628472,0.523871528,0.641493056,-0.422743056,0.022135417,0.022135417,5,2.641409119,2.002170309,1.611139714,2.604006708,-0.422743056,0,0,0,0,0.094618056,0.107638889,0.750868056,0.576388889,0.543402778,0.504340278,0.598958333,0.684027778,1,57,32.8022,duplo,haribo
1,89,4,8,2,24,32,1,2.475632099,0.402777778,0.473958333,0.441840278,0.042100694,-0.0390625,0.431857639,-0.0390625,4,2.30738397,2.623006864,2.076566526,2.22030126,0.431857639,0,0,0,0,0.3828125,0.422743056,0.631944444,0.315972222,0.481770833,0.401909722,0.0546875,0.029513889,1,57,32.8022,kiwi,meringues
1,90,4,9,2,22,6,1,2.126959927,0.439670139,0.647135417,0.391493056,0.517361111,0.048177083,0.129774306,0.048177083,5,2.622142581,2.123720393,2.718148303,2.821370657,0.129774306,7,0,0,0,0.381076389,0.498263889,0.575520833,0.71875,0.400173611,0.3828125,0.499131944,0.535590278,1,57,32.8022,bueno,bounty
1,91,4,10,2,17,24,-1,2.339837622,0.421440972,0.373263889,0.402777778,0.473958333,0.018663194,-0.100694444,0.018663194,5,3.16116035,2.059307595,2.30738397,2.623006864,-0.100694444,2,0,0,0,0.399305556,0.443576389,0.324652778,0.421875,0.3828125,0.422743056,0.631944444,0.315972222,1,57,32.8022,caramel,kiwi
1,92,4,11,2,20,5,1,1.59906691,0.271701389,0.515625,0.112847222,0.391059028,0.158854167,0.124565972,0.158854167,8,1.426346466,2.846805365,1.685426136,3.523201254,0.124565972,7,0,0,0,0.332465278,0.2109375,0.666666667,0.364583333,0.108506944,0.1171875,0.270833333,0.511284722,1,57,32.8022,cornflakes,torino
1,93,4,12,2,6,16,-1,1.429223049,0.391493056,0.517361111,0.571614583,0.682725694,-0.180121528,-0.165364583,-0.180121528,1,2.718148303,2.821370657,3.092844979,2.346799961,-0.165364583,1,0,0,0,0.400173611,0.3828125,0.499131944,0.535590278,0.518229167,0.625,0.605902778,0.759548611,1,57,32.8022,bounty,applegreen
1,94,4,13,2,4,8,1,1.989702269,0.37109375,0.584201389,0.311197917,0.260416667,0.059895833,0.323784722,0.059895833,6,3.283182611,2.051432333,1.948185517,1.887498795,0.323784722,0,0,0,0,0.400173611,0.342013889,0.449652778,0.71875,0.387152778,0.235243056,0.384548611,0.136284722,1,57,32.8022,benandjerrys,carrot
1,95,4,14,2,26,22,1,2.667252716,0.367621528,0.696614583,0.439670139,0.647135417,-0.072048611,0.049479167,-0.072048611,3,2.492345324,2.211645626,2.622142581,2.123720393,0.049479167,5,0,0,0,0.603298611,0.131944444,0.753472222,0.639756944,0.381076389,0.498263889,0.575520833,0.71875,1,57,32.8022,magnum,bueno
1,96,4,15,1,2,7,1,2.893280833,0.391927083,0.421875,0.780815972,0.285590278,-0.388888889,0.136284722,0.136284722,7,2.372858598,1.805807012,3.127466806,1.954281296,-0.388888889,0,0,0,0,0.471354167,0.3125,0.588541667,0.255208333,0.778645833,0.782986111,0.407986111,0.163194444,1,57,32.8022,balisto,broccoli
1,97,4,16,1,18,20,1,1.120430512,0.523871528,0.641493056,0.271701389,0.515625,0.252170139,0.125868056,0.125868056,7,1.611139714,2.604006708,1.426346466,2.846805365,0.252170139,0,0,0,0,0.543402778,0.504340278,0.598958333,0.684027778,0.332465278,0.2109375,0.666666667,0.364583333,1,57,32.8022,haribo,cornflakes
1,98,4,17,1,24,27,-1,1.278983931,0.402777778,0.473958333,0.444010417,0.5234375,-0.041232639,-0.049479167,-0.049479167,4,2.30738397,2.623006864,3.392728869,2.834136651,-0.041232639,4,0,0,0,0.3828125,0.422743056,0.631944444,0.315972222,0.536458333,0.3515625,0.380208333,0.666666667,1,57,32.8022,kiwi,maltesers
1,99,4,18,1,6,15,1,1.280432605,0.391493056,0.517361111,0.350260417,0.707465278,0.041232639,-0.190104167,-0.190104167,1,2.718148303,2.821370657,1.961086764,2.465233106,0.041232639,5,0,0,0,0.400173611,0.3828125,0.499131944,0.535590278,0.332465278,0.368055556,0.793402778,0.621527778,1,57,32.8022,bounty,galak
1,100,4,19,1,7,11,-1,1.445974533,0.780815972,0.285590278,0.172309028,0.249131944,0.608506944,0.036458333,0.036458333,5,3.127466806,1.954281296,2.271800011,2.004471319,0.608506944,0,0,0,0,0.778645833,0.782986111,0.407986111,0.163194444,0.209201389,0.135416667,0.234375,0.263888889,1,57,32.8022,broccoli,corny
1,101,4,20,2,9,17,-1,1.643616263,0.303385417,0.299479167,0.421440972,0.373263889,-0.118055556,-0.073784722,-0.118055556,2,4.129151853,1.606676501,3.16116035,2.059307595,-0.073784722,3,0,0,0,0.428819444,0.177951389,0.223958333,0.375,0.399305556,0.443576389,0.324652778,0.421875,1,57,32.8022,chocovo,caramel
1,102,4,21,2,22,4,1,2.496895435,0.439670139,0.647135417,0.37109375,0.584201389,0.068576389,0.062934028,0.068576389,6,2.622142581,2.123720393,3.283182611,2.051432333,0.062934028,6,0,0,0,0.381076389,0.498263889,0.575520833,0.71875,0.400173611,0.342013889,0.449652778,0.71875,1,57,32.8022,bueno,benandjerrys
1,103,4,22,2,17,16,-1,1.847508654,0.421440972,0.373263889,0.571614583,0.682725694,-0.150173611,-0.309461806,-0.150173611,1,3.16116035,2.059307595,3.092844979,2.346799961,-0.309461806,0,0,0,0,0.399305556,0.443576389,0.324652778,0.421875,0.518229167,0.625,0.605902778,0.759548611,1,57,32.8022,caramel,applegreen
1,104,4,23,2,20,31,1,2.076258331,0.271701389,0.515625,0.274739583,0.135416667,-0.003038194,0.380208333,-0.003038194,4,1.426346466,2.846805365,1.934162422,2.478933215,0.380208333,0,0,0,0,0.332465278,0.2109375,0.666666667,0.364583333,0.1796875,0.369791667,0.098090278,0.172743056,1,57,32.8022,cornflakes,melon
1,105,4,24,2,17,3,1,2.276539703,0.421440972,0.373263889,0.251736111,0.521701389,0.169704861,-0.1484375,0.169704861,8,3.16116035,2.059307595,3.178366375,2.167275187,-0.1484375,2,0,0,0,0.399305556,0.443576389,0.324652778,0.421875,0.335069444,0.168402778,0.65625,0.387152778,1,57,32.8022,caramel,banana
1,106,4,25,2,3,25,1,1.707875319,0.251736111,0.521701389,0.380208333,0.773003472,-0.128472222,-0.251302083,-0.128472222,2,3.178366375,2.167275187,1.928882712,2.208760509,-0.251302083,0,0,0,0,0.335069444,0.168402778,0.65625,0.387152778,0.348958333,0.411458333,0.747395833,0.798611111,1,57,32.8022,banana,lindt
1,107,4,26,2,4,6,1,1.554858889,0.37109375,0.584201389,0.391493056,0.517361111,-0.020399306,0.066840278,-0.020399306,4,3.283182611,2.051432333,2.718148303,2.821370657,0.066840278,6,0,0,0,0.400173611,0.342013889,0.449652778,0.71875,0.400173611,0.3828125,0.499131944,0.535590278,1,57,32.8022,benandjerrys,bounty
1,108,4,27,1,6,30,1,1.62339826,0.391493056,0.517361111,0.203993056,0.674479167,0.1875,-0.157118056,-0.157118056,1,2.718148303,2.821370657,3.23841708,1.619346922,0.1875,8,0,0,0,0.400173611,0.3828125,0.499131944,0.535590278,0.300347222,0.107638889,0.6015625,0.747395833,1,57,32.8022,bounty,mars
1,109,4,28,1,26,25,1,1.387003577,0.367621528,0.696614583,0.380208333,0.773003472,-0.012586806,-0.076388889,-0.076388889,3,2.492345324,2.211645626,1.928882712,2.208760509,-0.012586806,4,0,0,0,0.603298611,0.131944444,0.753472222,0.639756944,0.348958333,0.411458333,0.747395833,0.798611111,1,57,32.8022,magnum,lindt
1,110,4,29,1,23,14,1,1.22078894,0.848524306,0.777777778,0.101128472,0.663628472,0.747395833,0.114149306,0.114149306,7,3.282252621,2.522195033,2.641409119,2.002170309,0.747395833,0,0,0,0,0.817708333,0.879340278,0.730034722,0.825520833,0.094618056,0.107638889,0.750868056,0.576388889,1,57,32.8022,kitkat,duplo
1,111,4,30,1,4,2,-1,1.848005577,0.37109375,0.584201389,0.391927083,0.421875,-0.020833333,0.162326389,0.162326389,8,3.283182611,2.051432333,2.372858598,1.805807012,-0.020833333,4,0,0,0,0.400173611,0.342013889,0.449652778,0.71875,0.471354167,0.3125,0.588541667,0.255208333,1,57,32.8022,benandjerrys,balisto
1,112,4,31,1,17,24,-1,2.068013718,0.421440972,0.373263889,0.402777778,0.473958333,0.018663194,-0.100694444,-0.100694444,2,3.16116035,2.059307595,2.30738397,2.623006864,0.018663194,5,0,0,0,0.399305556,0.443576389,0.324652778,0.421875,0.3828125,0.422743056,0.631944444,0.315972222,1,57,32.8022,caramel,kiwi
1,113,5,1,2,10,25,-1,1.737368192,0.380208333,0.207465278,0.380208333,0.773003472,5.55E-17,-0.565538194,5.55E-17,5,2.272813912,2.416859259,1.928882712,2.208760509,-0.565538194,0,0,0,0,0.3515625,0.408854167,0.212673611,0.202256944,0.348958333,0.411458333,0.747395833,0.798611111,1,57,32.8022,lemon,lindt
1,114,5,2,2,2,16,-1,2.554245627,0.391927083,0.421875,0.571614583,0.682725694,-0.1796875,-0.260850694,-0.1796875,1,2.372858598,1.805807012,3.092844979,2.346799961,-0.260850694,0,0,0,0,0.471354167,0.3125,0.588541667,0.255208333,0.518229167,0.625,0.605902778,0.759548611,1,57,32.8022,balisto,applegreen
1,115,5,3,2,26,3,1,1.097989009,0.367621528,0.696614583,0.251736111,0.521701389,0.115885417,0.174913194,0.115885417,7,2.492345324,2.211645626,3.178366375,2.167275187,0.174913194,8,0,0,0,0.603298611,0.131944444,0.753472222,0.639756944,0.335069444,0.168402778,0.65625,0.387152778,1,57,32.8022,magnum,banana
1,116,5,4,2,8,2,-1,2.009339438,0.311197917,0.260416667,0.391927083,0.421875,-0.080729167,-0.161458333,-0.080729167,3,1.948185517,1.887498795,2.372858598,1.805807012,-0.161458333,1,0,0,0,0.387152778,0.235243056,0.384548611,0.136284722,0.471354167,0.3125,0.588541667,0.255208333,1,57,32.8022,carrot,balisto
1,117,5,5,1,23,16,1,1.105672982,0.848524306,0.777777778,0.571614583,0.682725694,0.276909722,0.095052083,0.095052083,6,3.282252621,2.522195033,3.092844979,2.346799961,0.276909722,0,0,0,0,0.817708333,0.879340278,0.730034722,0.825520833,0.518229167,0.625,0.605902778,0.759548611,1,57,32.8022,kitkat,applegreen
1,118,5,6,1,28,7,1,2.585450285,0.514756944,0.15625,0.780815972,0.285590278,-0.266059028,-0.129340278,-0.129340278,2,2.594807074,2.233435894,3.127466806,1.954281296,-0.266059028,0,0,0,0,0.626736111,0.402777778,0.180555556,0.131944444,0.778645833,0.782986111,0.407986111,0.163194444,1,57,32.8022,mango,broccoli
1,119,5,7,1,26,16,1,1.691792848,0.367621528,0.696614583,0.571614583,0.682725694,-0.203993056,0.013888889,0.013888889,5,2.492345324,2.211645626,3.092844979,2.346799961,-0.203993056,0,0,0,0,0.603298611,0.131944444,0.753472222,0.639756944,0.518229167,0.625,0.605902778,0.759548611,1,57,32.8022,magnum,applegreen
1,120,5,8,1,2,6,1,1.573400663,0.391927083,0.421875,0.391493056,0.517361111,0.000434028,-0.095486111,-0.095486111,3,2.372858598,1.805807012,2.718148303,2.821370657,0.000434028,5,0,0,0,0.471354167,0.3125,0.588541667,0.255208333,0.400173611,0.3828125,0.499131944,0.535590278,1,57,32.8022,balisto,bounty
1,121,5,9,1,20,6,-1,1.134075865,0.271701389,0.515625,0.391493056,0.517361111,-0.119791667,-0.001736111,-0.001736111,4,1.426346466,2.846805365,2.718148303,2.821370657,-0.119791667,2,0,0,0,0.332465278,0.2109375,0.666666667,0.364583333,0.400173611,0.3828125,0.499131944,0.535590278,1,57,32.8022,cornflakes,bounty
1,122,5,10,2,10,15,1,2.719551466,0.380208333,0.207465278,0.350260417,0.707465278,0.029947917,-0.5,0.029947917,5,2.272813912,2.416859259,1.961086764,2.465233106,-0.5,0,0,0,0,0.3515625,0.408854167,0.212673611,0.202256944,0.332465278,0.368055556,0.793402778,0.621527778,1,57,32.8022,lemon,galak
1,123,5,11,2,9,5,1,1.469543004,0.303385417,0.299479167,0.112847222,0.391059028,0.190538194,-0.091579861,0.190538194,8,4.129151853,1.606676501,1.685426136,3.523201254,-0.091579861,3,0,0,0,0.428819444,0.177951389,0.223958333,0.375,0.108506944,0.1171875,0.270833333,0.511284722,1,57,32.8022,chocovo,torino
1,124,5,12,2,29,21,-1,1.085509876,0.162760417,0.134548611,0.268229167,0.727864583,-0.10546875,-0.593315972,-0.10546875,2,3.194139797,2.99551133,1.969753492,1.729109215,-0.593315972,0,0,0,0,0.175347222,0.150173611,0.122395833,0.146701389,0.383680556,0.152777778,0.616319444,0.839409722,1,57,32.8022,maoam,frosties
1,125,5,13,2,14,30,-1,2.002008744,0.101128472,0.663628472,0.203993056,0.674479167,-0.102864583,-0.010850694,-0.102864583,2,2.641409119,2.002170309,3.23841708,1.619346922,-0.010850694,4,0,0,0,0.094618056,0.107638889,0.750868056,0.576388889,0.300347222,0.107638889,0.6015625,0.747395833,1,57,32.8022,duplo,mars
1,126,5,14,2,32,8,1,1.623656535,0.441840278,0.042100694,0.311197917,0.260416667,0.130642361,-0.218315972,0.130642361,7,2.076566526,2.22030126,1.948185517,1.887498795,-0.218315972,0,0,0,0,0.481770833,0.401909722,0.0546875,0.029513889,0.387152778,0.235243056,0.384548611,0.136284722,1,57,32.8022,meringues,carrot
1,127,5,15,2,28,22,1,1.41669357,0.514756944,0.15625,0.439670139,0.647135417,0.075086806,-0.490885417,0.075086806,6,2.594807074,2.233435894,2.622142581,2.123720393,-0.490885417,0,0,0,0,0.626736111,0.402777778,0.180555556,0.131944444,0.381076389,0.498263889,0.575520833,0.71875,1,57,32.8022,mango,bueno
1,128,5,16,2,2,6,1,1.623388304,0.391927083,0.421875,0.391493056,0.517361111,0.000434028,-0.095486111,0.000434028,5,2.372858598,1.805807012,2.718148303,2.821370657,-0.095486111,3,0,0,0,0.471354167,0.3125,0.588541667,0.255208333,0.400173611,0.3828125,0.499131944,0.535590278,1,57,32.8022,balisto,bounty
1,129,5,17,1,28,8,1,1.617256258,0.514756944,0.15625,0.311197917,0.260416667,0.203559028,-0.104166667,-0.104166667,2,2.594807074,2.233435894,1.948185517,1.887498795,0.203559028,0,0,0,0,0.626736111,0.402777778,0.180555556,0.131944444,0.387152778,0.235243056,0.384548611,0.136284722,1,57,32.8022,mango,carrot
1,130,5,18,1,23,15,1,1.339729818,0.848524306,0.777777778,0.350260417,0.707465278,0.498263889,0.0703125,0.0703125,6,3.282252621,2.522195033,1.961086764,2.465233106,0.498263889,0,0,0,0,0.817708333,0.879340278,0.730034722,0.825520833,0.332465278,0.368055556,0.793402778,0.621527778,1,57,32.8022,kitkat,galak
1,131,5,19,1,14,27,-1,1.473983461,0.101128472,0.663628472,0.444010417,0.5234375,-0.342881944,0.140190972,0.140190972,7,2.641409119,2.002170309,3.392728869,2.834136651,-0.342881944,0,0,0,0,0.094618056,0.107638889,0.750868056,0.576388889,0.536458333,0.3515625,0.380208333,0.666666667,1,57,32.8022,duplo,maltesers
1,132,5,20,1,5,4,-1,0.968621547,0.112847222,0.391059028,0.37109375,0.584201389,-0.258246528,-0.193142361,-0.193142361,1,1.685426136,3.523201254,3.283182611,2.051432333,-0.258246528,0,0,0,0,0.108506944,0.1171875,0.270833333,0.511284722,0.400173611,0.342013889,0.449652778,0.71875,1,57,32.8022,torino,benandjerrys
1,133,5,21,2,17,22,1,2.85610427,0.421440972,0.373263889,0.439670139,0.647135417,-0.018229167,-0.273871528,-0.018229167,4,3.16116035,2.059307595,2.622142581,2.123720393,-0.273871528,0,0,0,0,0.399305556,0.443576389,0.324652778,0.421875,0.381076389,0.498263889,0.575520833,0.71875,1,57,32.8022,caramel,bueno
1,134,5,22,2,2,10,1,1.673313652,0.391927083,0.421875,0.380208333,0.207465278,0.01171875,0.214409722,0.01171875,5,2.372858598,1.805807012,2.272813912,2.416859259,0.214409722,0,0,0,0,0.471354167,0.3125,0.588541667,0.255208333,0.3515625,0.408854167,0.212673611,0.202256944,1,57,32.8022,balisto,lemon
1,135,5,23,2,4,19,-1,1.74740139,0.37109375,0.584201389,0.318142361,0.559461806,0.052951389,0.024739583,0.052951389,6,3.283182611,2.051432333,2.588982228,2.695134356,0.024739583,5,0,0,0,0.400173611,0.342013889,0.449652778,0.71875,0.359375,0.276909722,0.590277778,0.528645833,1,57,32.8022,benandjerrys,cottagecheese
1,136,5,24,2,24,20,1,1.121901088,0.402777778,0.473958333,0.271701389,0.515625,0.131076389,-0.041666667,0.131076389,7,2.30738397,2.623006864,1.426346466,2.846805365,-0.041666667,4,0,0,0,0.3828125,0.422743056,0.631944444,0.315972222,0.332465278,0.2109375,0.666666667,0.364583333,1,57,32.8022,kiwi,cornflakes
1,137,5,25,2,22,3,1,1.470634416,0.439670139,0.647135417,0.251736111,0.521701389,0.187934028,0.125434028,0.187934028,8,2.622142581,2.123720393,3.178366375,2.167275187,0.125434028,7,0,0,0,0.381076389,0.498263889,0.575520833,0.71875,0.335069444,0.168402778,0.65625,0.387152778,1,57,32.8022,bueno,banana
1,138,5,26,2,3,32,-1,2.092694081,0.251736111,0.521701389,0.441840278,0.042100694,-0.190104167,0.479600694,-0.190104167,1,3.178366375,2.167275187,2.076566526,2.22030126,0.479600694,0,0,0,0,0.335069444,0.168402778,0.65625,0.387152778,0.481770833,0.401909722,0.0546875,0.029513889,1,57,32.8022,banana,meringues
1,139,5,27,1,1,11,-1,1.485982452,0.101996528,0.296875,0.172309028,0.249131944,-0.0703125,0.047743056,0.047743056,5,2.417928911,2.797818826,2.271800011,2.004471319,-0.0703125,3,0,0,0,0.09375,0.110243056,0.442708333,0.151041667,0.209201389,0.135416667,0.234375,0.263888889,1,57,32.8022,pineapple,corny
1,140,5,28,1,21,19,1,0.897753432,0.268229167,0.727864583,0.318142361,0.559461806,-0.049913194,0.168402778,0.168402778,8,1.969753492,1.729109215,2.588982228,2.695134356,-0.049913194,4,0,0,0,0.383680556,0.152777778,0.616319444,0.839409722,0.359375,0.276909722,0.590277778,0.528645833,1,57,32.8022,frosties,cottagecheese
1,141,5,29,1,31,28,-1,1.189791926,0.274739583,0.135416667,0.514756944,0.15625,-0.240017361,-0.020833333,-0.020833333,4,1.934162422,2.478933215,2.594807074,2.233435894,-0.240017361,0,0,0,0,0.1796875,0.369791667,0.098090278,0.172743056,0.626736111,0.402777778,0.180555556,0.131944444,1,57,32.8022,melon,mango
1,142,5,30,1,24,6,1,1.948667507,0.402777778,0.473958333,0.391493056,0.517361111,0.011284722,-0.043402778,-0.043402778,4,2.30738397,2.623006864,2.718148303,2.821370657,0.011284722,5,0,0,0,0.3828125,0.422743056,0.631944444,0.315972222,0.400173611,0.3828125,0.499131944,0.535590278,1,57,32.8022,kiwi,bounty
1,143,5,31,1,30,20,1,2.545983379,0.203993056,0.674479167,0.271701389,0.515625,-0.067708333,0.158854167,0.158854167,8,3.23841708,1.619346922,1.426346466,2.846805365,-0.067708333,3,0,0,0,0.300347222,0.107638889,0.6015625,0.747395833,0.332465278,0.2109375,0.666666667,0.364583333,1,57,32.8022,mars,cornflakes
